,subject,sex,age,lop,viet,trial,tone1,tone2,group,pair,actual,response,correct,rt,logrt
1,VM4,m,26,12,100,1,33,212,33/212,33-212,different,different,TRUE,2.40553784370422,0.877773514190855
2,VM4,m,26,12,100,2,21,33,33/21,21-33,different,same,FALSE,3.94692301750183,1.37293629243726
3,VM4,m,26,12,100,3,214,214,same,214-214,same,same,TRUE,2.56381106376648,0.941494848264728
4,VM4,m,26,12,100,4,212,212,same,212-212,same,same,TRUE,2.26785802841187,0.818835786204188
5,VM4,m,26,12,100,5,214,21,21/214,214-21,different,different,TRUE,2.34789800643921,0.853520462538219
6,VM4,m,26,12,100,6,212,35,35/212,212-35,different,different,TRUE,1.96721291542053,0.676617777280833
7,VM4,m,26,12,100,7,21,21,same,21-21,same,same,TRUE,1.98454618453979,0.685390265602981
8,VM4,m,26,12,100,8,21,212,21/212,21-212,different,different,TRUE,2.34783101081848,0.85349192783339
9,VM4,m,26,12,100,9,212,212,same,212-212,same,same,TRUE,2.48380899429321,0.909793266707787
10,VM4,m,26,12,100,10,33,33,same,33-33,same,same,TRUE,2.19586491584778,0.786576008024717
11,VM4,m,26,12,100,11,21,214,21/214,21-214,different,different,TRUE,1.98780798912048,0.687032518620301
12,VM4,m,26,12,100,12,212,33,33/212,212-33,different,different,TRUE,2.27570295333862,0.822288995153703
13,VM4,m,26,12,100,13,35,35,same,35-35,same,same,TRUE,1.96142387390137,0.673670675769737
14,VM4,m,26,12,100,14,212,214,212/214,212-214,different,different,TRUE,3.57442879676819,1.27380538625247
15,VM4,m,26,12,100,15,21,21,same,21-21,same,same,TRUE,2.06793999671936,0.726552941099201
16,VM4,m,26,12,100,16,35,33,33/35,35-33,different,different,TRUE,1.97080397605896,0.678441569170393
17,VM4,m,26,12,100,17,33,214,33/214,33-214,different,different,TRUE,2.86065912246704,1.05105206068044
18,VM4,m,26,12,100,18,33,35,33/35,33-35,different,different,TRUE,2.47584009170532,0.906579769419036
19,VM4,m,26,12,100,19,35,35,same,35-35,same,same,TRUE,1.97278690338135,0.6794472148117
20,VM4,m,26,12,100,20,35,212,35/212,35-212,different,different,TRUE,1.62359094619751,0.484640329592033
21,VM4,m,26,12,100,21,214,33,33/214,214-33,different,different,TRUE,3.00726509094238,1.1010310580663
22,VM4,m,26,12,100,22,214,212,212/214,214-212,different,same,FALSE,2.29183197021484,0.829351484740491
23,VM4,m,26,12,100,23,214,35,35/214,214-35,different,different,TRUE,2.13185381889343,0.756991938705911
24,VM4,m,26,12,100,24,33,21,33/21,33-21,different,different,TRUE,1.95907306671143,0.672471436230826
25,VM4,m,26,12,100,25,35,214,35/214,35-214,different,different,TRUE,2.36092209815979,0.859052262285742
26,VM4,m,26,12,100,26,212,21,21/212,212-21,different,different,TRUE,2.93174886703491,1.07559912791227
27,VM4,m,26,12,100,27,21,35,21/35,21-35,different,different,TRUE,1.97497510910034,0.680555795286498
28,VM4,m,26,12,100,28,35,21,21/35,35-21,different,different,TRUE,1.70389199256897,0.532915041755609
29,VM4,m,26,12,100,29,33,33,same,33-33,same,same,TRUE,1.75557804107666,0.562798170822902
30,VM4,m,26,12,100,30,214,214,same,214-214,same,same,TRUE,2.30876493453979,0.836712721179495
31,VM4,m,26,12,100,31,35,212,35/212,35-212,different,different,TRUE,2.76342797279358,1.01647192818947
32,VM4,m,26,12,100,32,214,33,33/214,214-33,different,different,TRUE,2.17970991134644,0.779191799756932
33,VM4,m,26,12,100,33,212,33,33/212,212-33,different,different,TRUE,2.87582397460938,1.05633923305155
34,VM4,m,26,12,100,34,212,21,21/212,212-21,different,different,TRUE,2.16352510452271,0.771738884277466
35,VM4,m,26,12,100,35,35,21,21/35,35-21,different,different,TRUE,2.14750480651855,0.764306613066344
36,VM4,m,26,12,100,36,212,212,same,212-212,same,same,TRUE,1.98000311851501,0.683098419712787
37,VM4,m,26,12,100,37,21,212,21/212,21-212,different,different,TRUE,2.81192016601562,1.03386758308154
38,VM4,m,26,12,100,38,214,35,35/214,214-35,different,different,TRUE,1.97446918487549,0.68029959507707
39,VM4,m,26,12,100,39,212,35,35/212,212-35,different,different,TRUE,1.96508598327637,0.675536001756451
40,VM4,m,26,12,100,40,35,35,same,35-35,same,same,TRUE,1.76496291160583,0.568129676909994
41,VM4,m,26,12,100,41,33,35,33/35,33-35,different,different,TRUE,2.24572396278381,0.809027947064115
42,VM4,m,26,12,100,42,35,33,33/35,35-33,different,different,TRUE,2.7323591709137,1.00516540119097
43,VM4,m,26,12,100,43,33,212,33/212,33-212,different,different,TRUE,4.03518199920654,1.39505140583644
44,VM4,m,26,12,100,44,21,214,21/214,21-214,different,different,TRUE,3.17162179946899,1.15424306572739
45,VM4,m,26,12,100,45,214,214,same,214-214,same,same,TRUE,2.26026892662048,0.81548380028482
46,VM4,m,26,12,100,46,21,21,same,21-21,same,same,TRUE,3.15583801269531,1.14925407489048
47,VM4,m,26,12,100,47,214,21,21/214,214-21,different,different,TRUE,1.96653079986572,0.676270975043059
48,VM4,m,26,12,100,48,214,212,212/214,214-212,different,same,FALSE,2.94496893882751,1.0800982699605
49,VM4,m,26,12,100,49,35,214,35/214,35-214,different,different,TRUE,2.2593240737915,0.815065686156996
50,VM4,m,26,12,100,50,212,214,212/214,212-214,different,same,FALSE,2.35549688339233,0.856751696037718
51,VM4,m,26,12,100,51,214,214,same,214-214,same,same,TRUE,1.98829007148743,0.687275008801356
52,VM4,m,26,12,100,52,33,33,same,33-33,same,same,TRUE,1.98778700828552,0.687021963805248
53,VM4,m,26,12,100,53,33,33,same,33-33,same,same,TRUE,1.96248817443848,0.674213144892438
54,VM4,m,26,12,100,54,35,35,same,35-35,same,same,TRUE,1.72204518318176,0.54351264444282
55,VM4,m,26,12,100,55,21,21,same,21-21,same,same,TRUE,3.24641513824463,1.17755135316523
56,VM4,m,26,12,100,56,33,21,33/21,33-21,different,different,TRUE,2.75549101829529,1.01359565478051
57,VM4,m,26,12,100,57,21,33,33/21,21-33,different,different,TRUE,2.65165281295776,0.975183148579179
58,VM4,m,26,12,100,58,33,214,33/214,33-214,different,different,TRUE,3.18778705596924,1.15932696320434
59,VM4,m,26,12,100,59,212,212,same,212-212,same,same,TRUE,2.52379608154297,0.925764149633427
60,VM4,m,26,12,100,60,21,35,21/35,21-35,different,different,TRUE,2.34757399559021,0.853382452621698
61,VM4,m,26,12,100,61,21,33,33/21,21-33,different,different,TRUE,2.14783096313477,0.764458478547567
62,VM4,m,26,12,100,62,33,21,33/21,33-21,different,different,TRUE,1.78688716888428,0.580475094219849
63,VM4,m,26,12,100,63,214,212,212/214,214-212,different,same,FALSE,3.13202118873596,1.14167854334704
64,VM4,m,26,12,100,64,21,21,same,21-21,same,same,TRUE,2.93992590904236,1.07838438002704
65,VM4,m,26,12,100,65,212,212,same,212-212,same,same,TRUE,2.34030604362488,0.850281708691501
66,VM4,m,26,12,100,66,21,35,21/35,21-35,different,different,TRUE,2.82736301422119,1.03934448016738
67,VM4,m,26,12,100,67,33,212,33/212,33-212,different,different,TRUE,1.65941786766052,0.506466858732878
68,VM4,m,26,12,100,68,212,212,same,212-212,same,same,TRUE,1.94630599021912,0.665933212008723
69,VM4,m,26,12,100,69,33,33,same,33-33,same,same,TRUE,2.34177708625793,0.850910079713823
70,VM4,m,26,12,100,70,214,214,same,214-214,same,same,TRUE,4.14766097068787,1.42254455382729
71,VM4,m,26,12,100,71,35,21,21/35,35-21,different,different,TRUE,1.85962986946106,0.620377473009586
72,VM4,m,26,12,100,72,35,33,33/35,35-33,different,different,TRUE,2.34722805023193,0.853235078842984
73,VM4,m,26,12,100,73,33,214,33/214,33-214,different,different,TRUE,1.59163618087769,0.46476253170588
74,VM4,m,26,12,100,74,35,35,same,35-35,same,same,TRUE,2.17653918266296,0.777736084450037
75,VM4,m,26,12,100,75,21,21,same,21-21,same,same,TRUE,1.64300012588501,0.496523915674124
76,VM4,m,26,12,100,76,35,35,same,35-35,same,same,TRUE,1.91607093811035,0.65027670292924
77,VM4,m,26,12,100,77,214,33,33/214,214-33,different,different,TRUE,1.76387715339661,0.567514314227928
78,VM4,m,26,12,100,78,214,21,21/214,214-21,different,different,TRUE,1.9468469619751,0.666211121336256
79,VM4,m,26,12,100,79,33,35,33/35,33-35,different,different,TRUE,2.06658887863159,0.725899363302747
80,VM4,m,26,12,100,80,35,214,35/214,35-214,different,different,TRUE,2.13453602790833,0.758249305924839
81,VM4,m,26,12,100,81,21,212,21/212,21-212,different,different,TRUE,1.97393894195557,0.680031009406047
82,VM4,m,26,12,100,82,35,212,35/212,35-212,different,different,TRUE,1.97698998451233,0.681575478172779
83,VM4,m,26,12,100,83,214,35,35/214,214-35,different,different,TRUE,1.66720104217529,0.511146197681858
84,VM4,m,26,12,100,84,212,35,35/212,212-35,different,different,TRUE,1.91694116592407,0.650730772890437
85,VM4,m,26,12,100,85,212,21,21/212,212-21,different,same,FALSE,2.58767986297607,0.950761668436907
86,VM4,m,26,12,100,86,214,214,same,214-214,same,same,TRUE,2.44361186027527,0.893477215389189
87,VM4,m,26,12,100,87,212,214,212/214,212-214,different,different,TRUE,3.48360896110535,1.24806881420234
88,VM4,m,26,12,100,88,212,33,33/212,212-33,different,different,TRUE,1.97396492958069,0.680044174683606
89,VM4,m,26,12,100,89,21,214,21/214,21-214,different,different,TRUE,2.20147180557251,0.789126139214792
90,VM4,m,26,12,100,90,33,33,same,33-33,same,different,FALSE,4.77899694442749,1.56423068022095
91,VM4,m,26,12,100,91,214,212,212/214,214-212,different,same,FALSE,1.97325205802917,0.679682972570065
92,VM4,m,26,12,100,92,214,214,same,214-214,same,same,TRUE,2.57821583747864,0.947097623851316
93,VM4,m,26,12,100,93,212,21,21/212,212-21,different,different,TRUE,1.79665017127991,0.585923915104846
94,VM4,m,26,12,100,94,35,214,35/214,35-214,different,different,TRUE,2.35567998886108,0.856829428406426
95,VM4,m,26,12,100,95,214,214,same,214-214,same,same,TRUE,2.33902096748352,0.849732451855801
96,VM4,m,26,12,100,96,212,212,same,212-212,same,same,TRUE,1.73980593681335,0.553773576439404
97,VM4,m,26,12,100,97,214,33,33/214,214-33,different,different,TRUE,1.98030400276184,0.683250369669288
98,VM4,m,26,12,100,98,33,212,33/212,33-212,different,different,TRUE,2.61132717132568,0.959858586855749
99,VM4,m,26,12,100,99,21,21,same,21-21,same,same,TRUE,2.16426301002502,0.77207989242756
100,VM4,m,26,12,100,100,21,212,21/212,21-212,different,different,TRUE,1.96820402145386,0.677121462694693
101,VM4,m,26,12,100,101,214,21,21/214,214-21,different,different,TRUE,1.96675586700439,0.676385417318937
102,VM4,m,26,12,100,102,35,33,33/35,35-33,different,different,TRUE,2.50019598007202,0.916369120830469
103,VM4,m,26,12,100,103,214,35,35/214,214-35,different,different,TRUE,1.63496494293213,0.491621362487616
104,VM4,m,26,12,100,104,212,212,same,212-212,same,same,TRUE,2.48449897766113,0.910071020573389
105,VM4,m,26,12,100,105,35,21,21/35,35-21,different,different,TRUE,1.97682094573975,0.68148997141706
106,VM4,m,26,12,100,106,21,21,same,21-21,same,same,TRUE,1.85433101654053,0.617523993030339
107,VM4,m,26,12,100,107,35,35,same,35-35,same,same,TRUE,2.16365885734558,0.771800704077177
108,VM4,m,26,12,100,108,212,214,212/214,212-214,different,same,FALSE,1.60499095916748,0.473118123648657
109,VM4,m,26,12,100,109,33,33,same,33-33,same,same,TRUE,1.71419405937195,0.538943033937
110,VM4,m,26,12,100,110,33,35,33/35,33-35,different,different,TRUE,1.75491905212402,0.562422731708222
111,VM4,m,26,12,100,111,21,35,21/35,21-35,different,different,TRUE,1.82067704200745,0.599208433016441
112,VM4,m,26,12,100,112,212,33,33/212,212-33,different,different,TRUE,1.94518494606018,0.665357060498516
113,VM4,m,26,12,100,113,212,35,35/212,212-35,different,different,TRUE,1.78511190414429,0.579481104663939
114,VM4,m,26,12,100,114,33,21,33/21,33-21,different,different,TRUE,1.75504088401794,0.562492152383208
115,VM4,m,26,12,100,115,35,35,same,35-35,same,same,TRUE,1.84985089302063,0.615105037474783
116,VM4,m,26,12,100,116,33,214,33/214,33-214,different,different,TRUE,1.84394192695618,0.611905631664614
117,VM4,m,26,12,100,117,21,33,33/21,21-33,different,different,TRUE,2.75630497932434,1.01389100716123
118,VM4,m,26,12,100,118,21,214,21/214,21-214,different,different,TRUE,1.62724089622498,0.486885878877955
119,VM4,m,26,12,100,119,35,212,35/212,35-212,different,different,TRUE,1.97981309890747,0.683002445759827
120,VM4,m,26,12,100,120,33,33,same,33-33,same,same,TRUE,1.84364604949951,0.611745159584117
121,VM4,m,26,12,100,121,214,214,same,214-214,same,same,TRUE,2.08855009078979,0.736470088766016
122,VM4,m,26,12,100,122,214,21,21/214,214-21,different,different,TRUE,1.59952807426453,0.469708632153701
123,VM4,m,26,12,100,123,212,212,same,212-212,same,same,TRUE,2.19589495658875,0.786589688527222
124,VM4,m,26,12,100,124,214,33,33/214,214-33,different,different,TRUE,1.73935508728027,0.553514405028548
125,VM4,m,26,12,100,125,35,35,same,35-35,same,same,TRUE,1.85171604156494,0.616112799179555
126,VM4,m,26,12,100,126,212,212,same,212-212,same,same,TRUE,1.69188594818115,0.525843852399789
127,VM4,m,26,12,100,127,214,212,212/214,214-212,different,same,FALSE,3.188227891922,1.15946524266481
128,VM4,m,26,12,100,128,33,212,33/212,33-212,different,different,TRUE,1.63402199745178,0.491044458679987
129,VM4,m,26,12,100,129,21,212,21/212,21-212,different,different,TRUE,2.54170203208923,0.93283394799318
130,VM4,m,26,12,100,130,33,21,33/21,33-21,different,different,TRUE,1.60408496856689,0.472553480963311
131,VM4,m,26,12,100,131,33,35,33/35,33-35,different,different,TRUE,1.7308177947998,0.54859401057285
132,VM4,m,26,12,100,132,212,35,35/212,212-35,different,different,TRUE,2.28454899787903,0.826168629757492
133,VM4,m,26,12,100,133,21,214,21/214,21-214,different,different,TRUE,1.81098294258118,0.593869760072368
134,VM4,m,26,12,100,134,33,214,33/214,33-214,different,different,TRUE,2.63618993759155,0.969334669276408
135,VM4,m,26,12,100,135,35,214,35/214,35-214,different,different,TRUE,1.47690582275391,0.389949238993582
136,VM4,m,26,12,100,136,21,21,same,21-21,same,same,TRUE,2.09639978408813,0.740221484954138
137,VM4,m,26,12,100,137,35,35,same,35-35,same,same,TRUE,1.5896520614624,0.463515163016593
138,VM4,m,26,12,100,138,214,35,35/214,214-35,different,different,TRUE,1.61766505241394,0.480983783864882
139,VM4,m,26,12,100,139,21,21,same,21-21,same,same,TRUE,1.71011996269226,0.536563521675123
140,VM4,m,26,12,100,140,33,33,same,33-33,same,same,TRUE,2.29235291481018,0.829578763792556
141,VM4,m,26,12,100,141,35,33,33/35,35-33,different,different,TRUE,1.49531698226929,0.402338212641603
142,VM4,m,26,12,100,142,212,214,212/214,212-214,different,same,FALSE,1.64543604850769,0.498005424171806
143,VM4,m,26,12,100,143,212,21,21/212,212-21,different,different,TRUE,1.70997405052185,0.536478195266004
144,VM4,m,26,12,100,144,21,35,21/35,21-35,different,different,TRUE,1.63591599464417,0.492202888845187
145,VM4,m,26,12,100,145,35,212,35/212,35-212,different,different,TRUE,2.42846608161926,0.887259815903269
146,VM4,m,26,12,100,146,212,33,33/212,212-33,different,different,TRUE,1.57859587669373,0.456535766286806
147,VM4,m,26,12,100,147,35,21,21/35,35-21,different,different,TRUE,1.70804500579834,0.535349445018251
148,VM4,m,26,12,100,148,33,33,same,33-33,same,same,TRUE,2.2366988658905,0.805001058288089
149,VM4,m,26,12,100,149,214,214,same,214-214,same,same,TRUE,1.63503813743591,0.491666129726055
150,VM4,m,26,12,100,150,21,33,33/21,21-33,different,different,TRUE,1.58905911445618,0.46314208916352
151,VF6,f,24,12,100,1,35,214,35/214,35-214,different,different,TRUE,2.2898530960083,0.828487665293719
152,VF6,f,24,12,100,2,212,214,212/214,212-214,different,same,FALSE,1.36834287643433,0.313600428463601
153,VF6,f,24,12,100,3,35,33,33/35,35-33,different,different,TRUE,1.93137192726135,0.658230593528071
154,VF6,f,24,12,100,4,214,21,21/214,214-21,different,different,TRUE,1.90792417526245,0.646015831807938
155,VF6,f,24,12,100,5,214,214,same,214-214,same,same,TRUE,1.92366099357605,0.654230137953642
156,VF6,f,24,12,100,6,35,212,35/212,35-212,different,same,FALSE,1.89886212348938,0.641254824396705
157,VF6,f,24,12,100,7,35,35,same,35-35,same,same,TRUE,1.98242878913879,0.684322754153512
158,VF6,f,24,12,100,8,21,33,33/21,21-33,different,different,TRUE,1.75557899475098,0.562798714048002
159,VF6,f,24,12,100,9,33,214,33/214,33-214,different,different,TRUE,1.67442297935486,0.515468615989343
160,VF6,f,24,12,100,10,35,21,21/35,35-21,different,different,TRUE,2.09265303611755,0.73843265624727
161,VF6,f,24,12,100,11,21,212,21/212,21-212,different,different,TRUE,1.82293295860291,0.600446719706477
162,VF6,f,24,12,100,12,33,212,33/212,33-212,different,different,TRUE,2.07590413093567,0.730396784533892
163,VF6,f,24,12,100,13,214,214,same,214-214,same,same,TRUE,1.55963397026062,0.444451159282157
164,VF6,f,24,12,100,14,214,33,33/214,214-33,different,different,TRUE,1.74769401550293,0.55829721357131
165,VF6,f,24,12,100,15,21,21,same,21-21,same,same,TRUE,1.89159107208252,0.637418312006156
166,VF6,f,24,12,100,16,212,35,35/212,212-35,different,different,TRUE,1.75319814682007,0.561441632534847
167,VF6,f,24,12,100,17,214,212,212/214,214-212,different,different,TRUE,2.1352059841156,0.758563121706161
168,VF6,f,24,12,100,18,33,21,33/21,33-21,different,different,TRUE,1.54706192016602,0.436357596753723
169,VF6,f,24,12,100,19,21,35,21/35,21-35,different,different,TRUE,2.09053206443787,0.737418609863736
170,VF6,f,24,12,100,20,33,33,same,33-33,same,same,TRUE,1.47706985473633,0.390060297445309
171,VF6,f,24,12,100,21,212,33,33/212,212-33,different,same,FALSE,1.56376886367798,0.447098845829649
172,VF6,f,24,12,100,22,212,212,same,212-212,same,same,TRUE,1.84398818016052,0.611930715222602
173,VF6,f,24,12,100,23,33,35,33/35,33-35,different,different,TRUE,2.1563560962677,0.768419804653232
174,VF6,f,24,12,100,24,35,35,same,35-35,same,same,TRUE,1.72322511672974,0.544197602946155
175,VF6,f,24,12,100,25,212,212,same,212-212,same,same,TRUE,1.62777805328369,0.487215927379622
176,VF6,f,24,12,100,26,21,21,same,21-21,same,same,TRUE,2.44449305534363,0.893837762101306
177,VF6,f,24,12,100,27,33,33,same,33-33,same,same,TRUE,1.60783100128174,0.474886066528132
178,VF6,f,24,12,100,28,212,21,21/212,212-21,different,different,TRUE,1.83898496627808,0.609213770644819
179,VF6,f,24,12,100,29,21,214,21/214,21-214,different,different,TRUE,1.94850301742554,0.667061394384361
180,VF6,f,24,12,100,30,214,35,35/214,214-35,different,different,TRUE,1.77087593078613,0.571474300325277
181,VF6,f,24,12,100,31,212,21,21/212,212-21,different,different,TRUE,1.91812801361084,0.651349717513908
182,VF6,f,24,12,100,32,33,21,33/21,33-21,different,different,TRUE,1.75360798835754,0.561675373165805
183,VF6,f,24,12,100,33,212,214,212/214,212-214,different,same,FALSE,2.27649807929993,0.822638332084866
184,VF6,f,24,12,100,34,33,33,same,33-33,same,same,TRUE,1.50715398788452,0.410223096165714
185,VF6,f,24,12,100,35,35,212,35/212,35-212,different,different,TRUE,2.09993481636047,0.741906304419286
186,VF6,f,24,12,100,36,21,21,same,21-21,same,same,TRUE,1.4925971031189,0.400517624884442
187,VF6,f,24,12,100,37,21,212,21/212,21-212,different,different,TRUE,1.97108006477356,0.678581648742593
188,VF6,f,24,12,100,38,214,35,35/214,214-35,different,different,TRUE,1.86774682998657,0.624732800635857
189,VF6,f,24,12,100,39,214,21,21/214,214-21,different,different,TRUE,2.36431002616882,0.860486235686597
190,VF6,f,24,12,100,40,33,35,33/35,33-35,different,different,TRUE,1.74529004096985,0.556920754432779
191,VF6,f,24,12,100,41,21,21,same,21-21,same,same,TRUE,1.78169298171997,0.577564025608134
192,VF6,f,24,12,100,42,21,35,21/35,21-35,different,different,TRUE,1.98439407348633,0.685313614888356
193,VF6,f,24,12,100,43,21,214,21/214,21-214,different,different,TRUE,1.815025806427,0.596099686032814
194,VF6,f,24,12,100,44,214,33,33/214,214-33,different,different,TRUE,1.80952000617981,0.593061620152754
195,VF6,f,24,12,100,45,212,33,33/212,212-33,different,different,TRUE,1.93423199653625,0.659710346680834
196,VF6,f,24,12,100,46,33,33,same,33-33,same,same,TRUE,1.57989501953125,0.457358401496767
197,VF6,f,24,12,100,47,35,35,same,35-35,same,same,TRUE,1.70755290985107,0.535061298718351
198,VF6,f,24,12,100,48,214,212,212/214,214-212,different,different,TRUE,1.98879289627075,0.687527869900851
199,VF6,f,24,12,100,49,214,214,same,214-214,same,same,TRUE,2.17964792251587,0.779163360324826
200,VF6,f,24,12,100,50,212,212,same,212-212,same,same,TRUE,2.01150298118591,0.698882194477656
201,VF6,f,24,12,100,51,33,214,33/214,33-214,different,different,TRUE,2.03562498092651,0.710802887678518
202,VF6,f,24,12,100,52,35,33,33/35,35-33,different,different,TRUE,1.98061299324036,0.683406389338195
203,VF6,f,24,12,100,53,212,35,35/212,212-35,different,different,TRUE,1.63441705703735,0.491286200735389
204,VF6,f,24,12,100,54,21,33,33/21,21-33,different,different,TRUE,2.34052515029907,0.850375327395221
205,VF6,f,24,12,100,55,35,35,same,35-35,same,same,TRUE,1.61898684501648,0.481800549286625
206,VF6,f,24,12,100,56,214,214,same,214-214,same,same,TRUE,1.79070997238159,0.582612173830155
207,VF6,f,24,12,100,57,212,212,same,212-212,same,same,TRUE,2.09716200828552,0.740585006105617
208,VF6,f,24,12,100,58,33,212,33/212,33-212,different,different,TRUE,1.84746789932251,0.61381599849171
209,VF6,f,24,12,100,59,35,21,21/35,35-21,different,same,FALSE,1.759850025177,0.565228592451617
210,VF6,f,24,12,100,60,35,214,35/214,35-214,different,same,FALSE,2.08986592292786,0.737099912209751
211,VF6,f,24,12,100,61,33,35,33/35,33-35,different,different,TRUE,1.96974682807922,0.67790502082594
212,VF6,f,24,12,100,62,212,35,35/212,212-35,different,different,TRUE,2.20029211044312,0.788590129024265
213,VF6,f,24,12,100,63,35,21,21/35,35-21,different,different,TRUE,2.77942395210266,1.02224369475742
214,VF6,f,24,12,100,64,33,212,33/212,33-212,different,different,TRUE,1.82768702507019,0.603051246705181
215,VF6,f,24,12,100,65,33,33,same,33-33,same,same,TRUE,1.57107210159302,0.451758253569158
216,VF6,f,24,12,100,66,35,35,same,35-35,same,same,TRUE,2.09218502044678,0.738208984188088
217,VF6,f,24,12,100,67,214,212,212/214,214-212,different,different,TRUE,2.07599306106567,0.730439622844142
218,VF6,f,24,12,100,68,212,33,33/212,212-33,different,different,TRUE,2.08367085456848,0.734131172150837
219,VF6,f,24,12,100,69,21,35,21/35,21-35,different,different,TRUE,1.69122004508972,0.525450188647394
220,VF6,f,24,12,100,70,21,21,same,21-21,same,same,TRUE,1.67587304115295,0.516334248088576
221,VF6,f,24,12,100,71,35,35,same,35-35,same,same,TRUE,1.81314897537231,0.595065099037992
222,VF6,f,24,12,100,72,212,21,21/212,212-21,different,different,TRUE,2.26716113090515,0.818528445711142
223,VF6,f,24,12,100,73,35,212,35/212,35-212,different,different,TRUE,1.76260614395142,0.566793477409457
224,VF6,f,24,12,100,74,21,212,21/212,21-212,different,different,TRUE,2.08913111686707,0.736748245979138
225,VF6,f,24,12,100,75,212,214,212/214,212-214,different,same,FALSE,1.52656817436218,0.423022192766903
226,VF6,f,24,12,100,76,35,214,35/214,35-214,different,different,TRUE,1.81285405158997,0.594902427478809
227,VF6,f,24,12,100,77,212,212,same,212-212,same,same,TRUE,1.79472994804382,0.584854563849748
228,VF6,f,24,12,100,78,214,214,same,214-214,same,same,TRUE,1.57981586456299,0.457308298831567
229,VF6,f,24,12,100,79,35,33,33/35,35-33,different,different,TRUE,1.67111206054688,0.513489309331714
230,VF6,f,24,12,100,80,33,33,same,33-33,same,same,TRUE,1.78449296951294,0.579134324188532
231,VF6,f,24,12,100,81,33,214,33/214,33-214,different,different,TRUE,2.15587401390076,0.768196216228387
232,VF6,f,24,12,100,82,214,21,21/214,214-21,different,different,TRUE,1.99643802642822,0.691364605931526
233,VF6,f,24,12,100,83,33,21,33/21,33-21,different,different,TRUE,1.81101512908936,0.593887532863817
234,VF6,f,24,12,100,84,21,21,same,21-21,same,same,TRUE,2.06483292579651,0.725049315535203
235,VF6,f,24,12,100,85,212,212,same,212-212,same,same,TRUE,1.5746111869812,0.454008376392554
236,VF6,f,24,12,100,86,214,35,35/214,214-35,different,different,TRUE,1.67594289779663,0.516375930952408
237,VF6,f,24,12,100,87,21,214,21/214,21-214,different,different,TRUE,1.93191289901733,0.658510651449681
238,VF6,f,24,12,100,88,214,33,33/214,214-33,different,different,TRUE,1.73982906341553,0.553786868984267
239,VF6,f,24,12,100,89,214,214,same,214-214,same,same,TRUE,1.56364989280701,0.447022763360179
240,VF6,f,24,12,100,90,21,33,33/21,21-33,different,different,TRUE,1.64562201499939,0.498118437365927
241,VF6,f,24,12,100,91,212,33,33/212,212-33,different,different,TRUE,2.09084606170654,0.737568798275209
242,VF6,f,24,12,100,92,33,33,same,33-33,same,same,TRUE,1.47489094734192,0.388584053053051
243,VF6,f,24,12,100,93,212,212,same,212-212,same,same,TRUE,1.95636987686157,0.671090652335725
244,VF6,f,24,12,100,94,21,214,21/214,21-214,different,different,TRUE,2.13932299613953,0.760489422038199
245,VF6,f,24,12,100,95,21,21,same,21-21,same,same,TRUE,1.55902695655823,0.4440618808551
246,VF6,f,24,12,100,96,33,33,same,33-33,same,same,TRUE,1.52049994468689,0.419039191757044
247,VF6,f,24,12,100,97,212,214,212/214,212-214,different,same,FALSE,1.65995907783508,0.506792950158012
248,VF6,f,24,12,100,98,21,35,21/35,21-35,different,different,TRUE,1.71584010124207,0.539902815629775
249,VF6,f,24,12,100,99,212,21,21/212,212-21,different,different,TRUE,2.22047686576843,0.797721977217221
250,VF6,f,24,12,100,100,21,33,33/21,21-33,different,different,TRUE,1.61102294921875,0.476869349418482
251,VF6,f,24,12,100,101,35,212,35/212,35-212,different,different,TRUE,1.91579699516296,0.65013372151515
252,VF6,f,24,12,100,102,35,21,21/35,35-21,different,different,TRUE,1.70476603507996,0.533427878492561
253,VF6,f,24,12,100,103,33,212,33/212,33-212,different,different,TRUE,2.09000897407532,0.737168359783443
254,VF6,f,24,12,100,104,35,33,33/35,35-33,different,different,TRUE,1.69066786766052,0.525123638833591
255,VF6,f,24,12,100,105,21,212,21/212,21-212,different,different,TRUE,2.08916902542114,0.736766391422398
256,VF6,f,24,12,100,106,212,35,35/212,212-35,different,different,TRUE,1.60429811477661,0.472686349267683
257,VF6,f,24,12,100,107,35,214,35/214,35-214,different,different,TRUE,1.97194480895996,0.679020268445972
258,VF6,f,24,12,100,108,35,35,same,35-35,same,same,TRUE,1.62790608406067,0.487294577992914
259,VF6,f,24,12,100,109,33,21,33/21,33-21,different,different,TRUE,1.7277991771698,0.54684844671253
260,VF6,f,24,12,100,110,33,214,33/214,33-214,different,different,TRUE,2.28839206695557,0.827849416772583
261,VF6,f,24,12,100,111,214,33,33/214,214-33,different,different,TRUE,1.65114402770996,0.501468397783587
262,VF6,f,24,12,100,112,214,212,212/214,214-212,different,different,TRUE,2.35648202896118,0.857169841195634
263,VF6,f,24,12,100,113,21,21,same,21-21,same,same,TRUE,1.63507199287415,0.491686835718749
264,VF6,f,24,12,100,114,212,212,same,212-212,same,same,TRUE,1.73972988128662,0.553729860535489
265,VF6,f,24,12,100,115,35,35,same,35-35,same,same,TRUE,1.78154897689819,0.577483197629833
266,VF6,f,24,12,100,116,214,214,same,214-214,same,same,TRUE,1.61856389045715,0.481539268709862
267,VF6,f,24,12,100,117,214,214,same,214-214,same,same,TRUE,1.59547185897827,0.467169528835877
268,VF6,f,24,12,100,118,33,35,33/35,33-35,different,different,TRUE,1.86430811882019,0.622890002399133
269,VF6,f,24,12,100,119,214,21,21/214,214-21,different,different,TRUE,2.08951115608215,0.736930142007231
270,VF6,f,24,12,100,120,214,35,35/214,214-35,different,different,TRUE,2.01020002365112,0.698234231374059
271,VF6,f,24,12,100,121,212,33,33/212,212-33,different,different,TRUE,1.77901411056519,0.576059340392088
272,VF6,f,24,12,100,122,35,212,35/212,35-212,different,different,TRUE,1.86432099342346,0.622896908209759
273,VF6,f,24,12,100,123,33,35,33/35,33-35,different,different,TRUE,1.75922417640686,0.564872903005536
274,VF6,f,24,12,100,124,33,33,same,33-33,same,same,TRUE,1.80621480941772,0.591233390013507
275,VF6,f,24,12,100,125,33,214,33/214,33-214,different,different,TRUE,1.79352807998657,0.584184674397648
276,VF6,f,24,12,100,126,21,214,21/214,21-214,different,different,TRUE,1.92404103279114,0.654427678830622
277,VF6,f,24,12,100,127,214,214,same,214-214,same,same,TRUE,1.65176105499268,0.501842024802495
278,VF6,f,24,12,100,128,214,21,21/214,214-21,different,different,TRUE,1.78775715827942,0.580961850010185
279,VF6,f,24,12,100,129,35,214,35/214,35-214,different,different,TRUE,1.89500904083252,0.639223609410882
280,VF6,f,24,12,100,130,35,35,same,35-35,same,different,FALSE,1.76857709884644,0.570175324328877
281,VF6,f,24,12,100,131,212,212,same,212-212,same,same,TRUE,2.44438099861145,0.893791920571759
282,VF6,f,24,12,100,132,212,35,35/212,212-35,different,different,TRUE,1.84950017929077,0.614915429230497
283,VF6,f,24,12,100,133,214,212,212/214,214-212,different,different,TRUE,3.88587403297424,1.35734793482878
284,VF6,f,24,12,100,134,33,212,33/212,33-212,different,different,TRUE,2.35583686828613,0.856896022426935
285,VF6,f,24,12,100,135,33,21,33/21,33-21,different,different,TRUE,2.56335210800171,0.941315819140582
286,VF6,f,24,12,100,136,214,35,35/214,214-35,different,different,TRUE,1.83582806587219,0.607495641774124
287,VF6,f,24,12,100,137,21,33,33/21,21-33,different,different,TRUE,1.77132391929626,0.57172724399389
288,VF6,f,24,12,100,138,212,214,212/214,212-214,different,same,FALSE,3.90043091773987,1.36108703876001
289,VF6,f,24,12,100,139,21,21,same,21-21,same,same,TRUE,1.45882201194763,0.377629268916992
290,VF6,f,24,12,100,140,212,212,same,212-212,same,same,TRUE,1.9727029800415,0.679404673407547
291,VF6,f,24,12,100,141,214,214,same,214-214,same,same,TRUE,1.60301518440247,0.471886346073173
292,VF6,f,24,12,100,142,21,212,21/212,21-212,different,same,FALSE,1.48385000228882,0.394640063011817
293,VF6,f,24,12,100,143,212,21,21/212,212-21,different,different,TRUE,1.98027610778809,0.683236283362244
294,VF6,f,24,12,100,144,21,21,same,21-21,same,same,TRUE,1.62331295013428,0.484469091962101
295,VF6,f,24,12,100,145,214,33,33/214,214-33,different,different,TRUE,1.71175909042358,0.537521549607291
296,VF6,f,24,12,100,146,35,33,33/35,35-33,different,different,TRUE,1.9963710308075,0.691331047792495
297,VF6,f,24,12,100,147,35,21,21/35,35-21,different,different,TRUE,1.91956281661987,0.652097460435033
298,VF6,f,24,12,100,148,33,33,same,33-33,same,same,TRUE,1.68724894523621,0.523099359503359
299,VF6,f,24,12,100,149,35,35,same,35-35,same,same,TRUE,2.09129285812378,0.737782467131027
300,VF6,f,24,12,100,150,21,35,21/35,21-35,different,different,TRUE,1.58823013305664,0.462620272385903
301,VM1,m,47,12,100,1,21,33,33/21,21-33,different,different,TRUE,2.18794870249985,0.782964439357957
302,VM1,m,47,12,100,2,33,21,33/21,33-21,different,same,FALSE,1.93146243822412,0.658277455989268
303,VM1,m,47,12,100,3,33,33,same,33-33,same,different,FALSE,2.53935306031781,0.931909347926442
304,VM1,m,47,12,100,4,35,212,35/212,35-212,different,different,TRUE,2.89923730998999,1.06444770584759
305,VM1,m,47,12,100,5,212,212,same,212-212,same,same,TRUE,3.09436653502053,1.12958321152747
306,VM1,m,47,12,100,6,21,21,same,21-21,same,same,TRUE,2.12581948129809,0.754157366294986
307,VM1,m,47,12,100,7,214,214,same,214-214,same,same,TRUE,2.66513149540697,0.980253398016673
308,VM1,m,47,12,100,8,33,35,33/35,33-35,different,different,TRUE,2.10289709328208,0.743315962228987
309,VM1,m,47,12,100,9,214,212,212/214,214-212,different,same,FALSE,4.83502178656636,1.57588563490676
310,VM1,m,47,12,100,10,21,212,21/212,21-212,different,same,FALSE,2.78258139657555,1.02337905677674
311,VM1,m,47,12,100,11,35,21,21/35,35-21,different,different,TRUE,2.80482267393381,1.03134031912742
312,VM1,m,47,12,100,12,212,33,33/212,212-33,different,different,TRUE,2.96405634106486,1.08655871570961
313,VM1,m,47,12,100,13,35,33,33/35,35-33,different,different,TRUE,2.76526309983456,1.01713578409469
314,VM1,m,47,12,100,14,212,212,same,212-212,same,same,TRUE,2.57420835316589,0.945542051183934
315,VM1,m,47,12,100,15,21,214,21/214,21-214,different,different,TRUE,2.15811708176625,0.769236120121505
316,VM1,m,47,12,100,16,21,21,same,21-21,same,same,TRUE,3.28967148916854,1.19078770847525
317,VM1,m,47,12,100,17,35,35,same,35-35,same,same,TRUE,2.32864807872102,0.845287875457797
318,VM1,m,47,12,100,18,33,212,33/212,33-212,different,different,TRUE,2.53652664348192,0.930795682003314
319,VM1,m,47,12,100,19,35,35,same,35-35,same,same,TRUE,2.98952936664864,1.09511597255488
320,VM1,m,47,12,100,20,33,33,same,33-33,same,same,TRUE,2.40341183848795,0.876889327208135
321,VM1,m,47,12,100,21,212,21,21/212,212-21,different,different,TRUE,2.22487490525236,0.799700691679179
322,VM1,m,47,12,100,22,214,35,35/214,214-35,different,different,TRUE,2.66591458025505,0.980547180828751
323,VM1,m,47,12,100,23,214,33,33/214,214-33,different,different,TRUE,2.73974197321513,1.00786374560623
324,VM1,m,47,12,100,24,214,214,same,214-214,same,same,TRUE,2.58809351867239,0.950921511485162
325,VM1,m,47,12,100,25,35,214,35/214,35-214,different,different,TRUE,2.18426993531466,0.781281647001006
326,VM1,m,47,12,100,26,212,35,35/212,212-35,different,different,TRUE,2.98805042015738,1.09462114134419
327,VM1,m,47,12,100,27,21,35,21/35,21-35,different,different,TRUE,2.53818580853113,0.93144957722359
328,VM1,m,47,12,100,28,214,21,21/214,214-21,different,different,TRUE,2.14264458208345,0.762040852099021
329,VM1,m,47,12,100,29,33,214,33/214,33-214,different,different,TRUE,3.59488795023935,1.27951282246456
330,VM1,m,47,12,100,30,212,214,212/214,212-214,different,different,TRUE,2.2938165157102,0.830217031075039
331,VM1,m,47,12,100,31,212,212,same,212-212,same,same,TRUE,1.92915102314146,0.657080021756613
332,VM1,m,47,12,100,32,33,21,33/21,33-21,different,different,TRUE,2.92773813540407,1.07423015746979
333,VM1,m,47,12,100,33,214,214,same,214-214,same,same,TRUE,3.05733194459754,1.11754262209637
334,VM1,m,47,12,100,34,212,212,same,212-212,same,same,TRUE,2.14663504397322,0.763901520271273
335,VM1,m,47,12,100,35,212,35,35/212,212-35,different,different,TRUE,1.88449658738682,0.633660722838203
336,VM1,m,47,12,100,36,21,35,21/35,21-35,different,different,TRUE,2.32005402707728,0.841590472940377
337,VM1,m,47,12,100,37,214,21,21/214,214-21,different,different,TRUE,2.41488618012227,0.88165215560971
338,VM1,m,47,12,100,38,214,33,33/214,214-33,different,different,TRUE,2.35046478426375,0.854613089137841
339,VM1,m,47,12,100,39,35,35,same,35-35,same,same,TRUE,2.42044986653491,0.883953418154571
340,VM1,m,47,12,100,40,212,21,21/212,212-21,different,different,TRUE,2.02821542594756,0.707156305899783
341,VM1,m,47,12,100,41,33,212,33/212,33-212,different,different,TRUE,3.1601828608982,1.15062989329742
342,VM1,m,47,12,100,42,21,21,same,21-21,same,same,TRUE,2.3596758118365,0.858524241735798
343,VM1,m,47,12,100,43,214,214,same,214-214,same,same,TRUE,2.34443355580152,0.852043818690165
344,VM1,m,47,12,100,44,33,33,same,33-33,same,same,TRUE,2.30831609178858,0.836518294116134
345,VM1,m,47,12,100,45,35,33,33/35,35-33,different,different,TRUE,2.12542056338862,0.753969694977226
346,VM1,m,47,12,100,46,21,21,same,21-21,same,same,TRUE,1.9537922214804,0.669772213002656
347,VM1,m,47,12,100,47,35,21,21/35,35-21,different,different,TRUE,3.45498705119826,1.2398187093684
348,VM1,m,47,12,100,48,33,35,33/35,33-35,different,different,TRUE,2.13319304933248,0.757619941409954
349,VM1,m,47,12,100,49,21,212,21/212,21-212,different,different,TRUE,2.2879808981088,0.827669724754029
350,VM1,m,47,12,100,50,33,33,same,33-33,same,same,TRUE,1.92276448835037,0.653763988149815
351,VM1,m,47,12,100,51,21,33,33/21,21-33,different,different,TRUE,2.5633554769156,0.941317133400792
352,VM1,m,47,12,100,52,214,212,212/214,214-212,different,same,FALSE,2.24423717529862,0.808365675167406
353,VM1,m,47,12,100,53,35,212,35/212,35-212,different,different,TRUE,2.61497943199356,0.961256232091522
354,VM1,m,47,12,100,54,33,214,33/214,33-214,different,different,TRUE,3.03922928031534,1.11160395706287
355,VM1,m,47,12,100,55,212,214,212/214,212-214,different,different,TRUE,2.8764233096299,1.05654761596455
356,VM1,m,47,12,100,56,214,35,35/214,214-35,different,different,TRUE,2.33594725048169,0.848417483581612
357,VM1,m,47,12,100,57,35,214,35/214,35-214,different,different,TRUE,5.00681174793863,1.6107993348656
358,VM1,m,47,12,100,58,212,33,33/212,212-33,different,different,TRUE,2.31687679336756,0.840220068968443
359,VM1,m,47,12,100,59,21,214,21/214,21-214,different,different,TRUE,2.1447911709547,0.763042191442285
360,VM1,m,47,12,100,60,35,35,same,35-35,same,same,TRUE,2.15824214444729,0.769294068348016
361,VM1,m,47,12,100,61,212,33,33/212,212-33,different,different,TRUE,2.74651010954403,1.01033105467635
362,VM1,m,47,12,100,62,35,212,35/212,35-212,different,different,TRUE,2.35759720577335,0.857642967241013
363,VM1,m,47,12,100,63,214,33,33/214,214-33,different,different,TRUE,3.79100549120631,1.33263128501806
364,VM1,m,47,12,100,64,212,212,same,212-212,same,same,TRUE,1.72708049805078,0.546432409572632
365,VM1,m,47,12,100,65,33,214,33/214,33-214,different,different,TRUE,2.49028102548618,0.912395565749258
366,VM1,m,47,12,100,66,21,21,same,21-21,same,same,TRUE,2.22676431390573,0.800549551469385
367,VM1,m,47,12,100,67,35,214,35/214,35-214,different,different,TRUE,2.53361877557472,0.929648626845843
368,VM1,m,47,12,100,68,33,33,same,33-33,same,same,TRUE,2.20101679174695,0.788919431659681
369,VM1,m,47,12,100,69,35,33,33/35,35-33,different,different,TRUE,2.10301830789831,0.743373602292897
370,VM1,m,47,12,100,70,33,33,same,33-33,same,same,TRUE,1.98604300360603,0.6861442187652
371,VM1,m,47,12,100,71,33,21,33/21,33-21,different,different,TRUE,1.67977152649837,0.518657788034933
372,VM1,m,47,12,100,72,21,21,same,21-21,same,same,TRUE,2.28278662764933,0.825396901791053
373,VM1,m,47,12,100,73,214,21,21/214,214-21,different,different,TRUE,2.13137098211155,0.756765426238713
374,VM1,m,47,12,100,74,35,35,same,35-35,same,same,TRUE,2.46019671398972,0.900241311783709
375,VM1,m,47,12,100,75,214,214,same,214-214,same,same,TRUE,1.94824585143942,0.666929404361324
376,VM1,m,47,12,100,76,212,21,21/212,212-21,different,different,TRUE,5.53016063180985,1.71021686245593
377,VM1,m,47,12,100,77,33,212,33/212,33-212,different,different,TRUE,1.95132816578553,0.668510251384306
378,VM1,m,47,12,100,78,212,35,35/212,212-35,different,different,TRUE,1.86624962001224,0.623930866260922
379,VM1,m,47,12,100,79,21,33,33/21,21-33,different,different,TRUE,2.40134413533087,0.876028636968717
380,VM1,m,47,12,100,80,214,212,212/214,214-212,different,same,FALSE,3.07319438333798,1.12271753638309
381,VM1,m,47,12,100,81,35,21,21/35,35-21,different,different,TRUE,3.1766718957806,1.15583407509757
382,VM1,m,47,12,100,82,214,35,35/214,214-35,different,different,TRUE,2.28185539161495,0.824988880288659
383,VM1,m,47,12,100,83,21,35,21/35,21-35,different,different,TRUE,2.29326367449539,0.82997598832254
384,VM1,m,47,12,100,84,212,214,212/214,212-214,different,different,TRUE,5.04553821209993,1.61850433039489
385,VM1,m,47,12,100,85,214,214,same,214-214,same,same,TRUE,2.23503384389915,0.804256370635064
386,VM1,m,47,12,100,86,33,35,33/35,33-35,different,different,TRUE,2.42206157189503,0.884619066729746
387,VM1,m,47,12,100,87,212,212,same,212-212,same,same,TRUE,2.47560764434456,0.906485878753792
388,VM1,m,47,12,100,88,21,212,21/212,21-212,different,different,TRUE,4.38466205494478,1.47811255442658
389,VM1,m,47,12,100,89,35,35,same,35-35,same,same,TRUE,2.05036948008637,0.718020011098562
390,VM1,m,47,12,100,90,21,214,21/214,21-214,different,different,TRUE,2.03825699807203,0.71209502992775
391,VM1,m,47,12,100,91,33,21,33/21,33-21,different,different,TRUE,2.54262521342025,0.933197095877486
392,VM1,m,47,12,100,92,212,35,35/212,212-35,different,different,TRUE,2.01765051455004,0.701933722864961
393,VM1,m,47,12,100,93,33,33,same,33-33,same,same,TRUE,1.8954976148234,0.639481397637084
394,VM1,m,47,12,100,94,214,214,same,214-214,same,same,TRUE,2.22456577593402,0.799561739689037
395,VM1,m,47,12,100,95,33,33,same,33-33,same,same,TRUE,1.79986826730601,0.587713477393984
396,VM1,m,47,12,100,96,35,214,35/214,35-214,different,different,TRUE,1.87834157892212,0.630389248657181
397,VM1,m,47,12,100,97,21,35,21/35,21-35,different,different,TRUE,2.41161723376717,0.880297573803953
398,VM1,m,47,12,100,98,212,33,33/212,212-33,different,different,TRUE,1.89661035210884,0.640068267698316
399,VM1,m,47,12,100,99,21,21,same,21-21,same,same,TRUE,2.03889321441238,0.71240711867227
400,VM1,m,47,12,100,100,21,33,33/21,21-33,different,different,TRUE,2.0480798708013,0.716902705831503
401,VM1,m,47,12,100,101,33,212,33/212,33-212,different,different,TRUE,2.88872178232123,1.06081411443109
402,VM1,m,47,12,100,102,33,35,33/35,33-35,different,different,TRUE,2.07914865015482,0.731958507115785
403,VM1,m,47,12,100,103,212,212,same,212-212,same,same,TRUE,4.11985046349582,1.41581686743474
404,VM1,m,47,12,100,104,212,212,same,212-212,same,same,TRUE,2.0117417833826,0.699000905722407
405,VM1,m,47,12,100,105,35,35,same,35-35,same,same,TRUE,2.09421261171519,0.739177641064529
406,VM1,m,47,12,100,106,21,21,same,21-21,same,same,TRUE,1.68621642387006,0.522487216626281
407,VM1,m,47,12,100,107,33,214,33/214,33-214,different,different,TRUE,1.83608065068256,0.607633218620535
408,VM1,m,47,12,100,108,214,214,same,214-214,same,same,TRUE,2.04055686888751,0.7132227455501
409,VM1,m,47,12,100,109,35,21,21/35,35-21,different,different,TRUE,1.93903161711933,0.662188682016862
410,VM1,m,47,12,100,110,214,212,212/214,214-212,different,same,FALSE,7.43779061042005,2.00657384377832
411,VM1,m,47,12,100,111,214,21,21/214,214-21,different,different,TRUE,1.91712704701058,0.650827735738426
412,VM1,m,47,12,100,112,21,212,21/212,21-212,different,different,TRUE,3.89699002960697,1.3602044678742
413,VM1,m,47,12,100,113,214,35,35/214,214-35,different,different,TRUE,2.38460305101762,0.869032674856333
414,VM1,m,47,12,100,114,21,214,21/214,21-214,different,different,TRUE,3.33431566336367,1.20426745991981
415,VM1,m,47,12,100,115,35,33,33/35,35-33,different,different,TRUE,2.36926908232272,0.862581503497479
416,VM1,m,47,12,100,116,35,212,35/212,35-212,different,different,TRUE,3.81684280195623,1.33942358925147
417,VM1,m,47,12,100,117,214,33,33/214,214-33,different,different,TRUE,2.83458887724555,1.04189690981915
418,VM1,m,47,12,100,118,35,35,same,35-35,same,different,FALSE,1.87936581029498,0.630934384982149
419,VM1,m,47,12,100,119,212,21,21/212,212-21,different,different,TRUE,3.53635796919116,1.2630973752824
420,VM1,m,47,12,100,120,212,214,212/214,212-214,different,same,FALSE,7.73570854107675,2.04584708177899
421,VM1,m,47,12,100,121,33,212,33/212,33-212,different,different,TRUE,2.16523539363698,0.772529082397224
422,VM1,m,47,12,100,122,214,214,same,214-214,same,same,TRUE,2.29523453423462,0.830835031857386
423,VM1,m,47,12,100,123,214,212,212/214,214-212,different,same,FALSE,3.39648464806669,1.22274096971164
424,VM1,m,47,12,100,124,212,33,33/212,212-33,different,different,TRUE,2.26413625291025,0.817193340910901
425,VM1,m,47,12,100,125,212,21,21/212,212-21,different,different,TRUE,5.78215682477457,1.75477676615518
426,VM1,m,47,12,100,126,212,212,same,212-212,same,same,TRUE,3.38056577078532,1.21804308329346
427,VM1,m,47,12,100,127,33,33,same,33-33,same,same,TRUE,2.08832696903846,0.736363252127854
428,VM1,m,47,12,100,128,35,21,21/35,35-21,different,different,TRUE,2.0776305814943,0.731228100883745
429,VM1,m,47,12,100,129,21,35,21/35,21-35,different,different,TRUE,2.35798265540507,0.857806446449902
430,VM1,m,47,12,100,130,35,212,35/212,35-212,different,different,TRUE,3.15629244915908,1.14939806318961
431,VM1,m,47,12,100,131,214,33,33/214,214-33,different,different,TRUE,4.02519532227598,1.39257343696665
432,VM1,m,47,12,100,132,212,35,35/212,212-35,different,different,TRUE,2.1797542101267,0.779212122796202
433,VM1,m,47,12,100,133,33,33,same,33-33,same,same,TRUE,2.24332710371527,0.807960078037542
434,VM1,m,47,12,100,134,21,33,33/21,21-33,different,different,TRUE,6.22110378407524,1.82794734825424
435,VM1,m,47,12,100,135,33,35,33/35,33-35,different,different,TRUE,1.98819985402224,0.687229633373835
436,VM1,m,47,12,100,136,21,21,same,21-21,same,same,TRUE,2.79805838568427,1.02892574296063
437,VM1,m,47,12,100,137,21,21,same,21-21,same,same,TRUE,1.86942236429604,0.625629487049896
438,VM1,m,47,12,100,138,214,21,21/214,214-21,different,different,TRUE,3.10855954716681,1.13415945078209
439,VM1,m,47,12,100,139,21,214,21/214,21-214,different,different,TRUE,5.76504760720127,1.75181341165766
440,VM1,m,47,12,100,140,33,214,33/214,33-214,different,different,TRUE,2.33169832569547,0.846596897210825
441,VM1,m,47,12,100,141,21,212,21/212,21-212,different,different,TRUE,5.99560292402748,1.79102635456974
442,VM1,m,47,12,100,142,33,21,33/21,33-21,different,different,TRUE,3.47020108798461,1.24421254270755
443,VM1,m,47,12,100,143,35,214,35/214,35-214,different,different,TRUE,2.96845598242362,1.08804194639687
444,VM1,m,47,12,100,144,212,212,same,212-212,same,same,TRUE,3.34590288207983,1.20773657706265
445,VM1,m,47,12,100,145,35,35,same,35-35,same,same,TRUE,1.98645346578269,0.68635087076919
446,VM1,m,47,12,100,146,214,35,35/214,214-35,different,different,TRUE,2.04166960617295,0.713767907519822
447,VM1,m,47,12,100,147,35,35,same,35-35,same,same,TRUE,2.46606055086886,0.902621958726533
448,VM1,m,47,12,100,148,212,214,212/214,212-214,different,same,FALSE,4.44762502741651,1.49237025200455
449,VM1,m,47,12,100,149,214,214,same,214-214,same,same,TRUE,2.01321239235403,0.699731651451507
450,VM1,m,47,12,100,150,35,33,33/35,35-33,different,different,TRUE,2.8253547611821,1.0386339358935
451,VM2,m,26,12,100,1,21,21,same,21-21,same,different,FALSE,2.01552573149092,0.70088007029633
452,VM2,m,26,12,100,2,21,214,21/214,21-214,different,same,FALSE,1.72541876760079,0.545469784847496
453,VM2,m,26,12,100,3,33,33,same,33-33,same,different,FALSE,1.62437388485705,0.485122439907526
454,VM2,m,26,12,100,4,214,35,35/214,214-35,different,same,FALSE,1.85635876446031,0.618616915500984
455,VM2,m,26,12,100,5,33,212,33/212,33-212,different,same,FALSE,1.99148932349635,0.688882762588964
456,VM2,m,26,12,100,6,21,35,21/35,21-35,different,same,FALSE,2.29550582407683,0.830953221875268
457,VM2,m,26,12,100,7,21,21,same,21-21,same,different,FALSE,2.34354913809511,0.851666505984618
458,VM2,m,26,12,100,8,212,212,same,212-212,same,same,TRUE,2.09938186962972,0.741642953605193
459,VM2,m,26,12,100,9,33,35,33/35,33-35,different,different,TRUE,2.15463777355035,0.767622622908029
460,VM2,m,26,12,100,10,33,21,33/21,33-21,different,different,TRUE,2.59344235379831,0.952986087378295
461,VM2,m,26,12,100,11,214,212,212/214,214-212,different,same,FALSE,2.02829880107311,0.707197412683039
462,VM2,m,26,12,100,12,214,214,same,214-214,same,different,FALSE,2.10231603277498,0.743039609761998
463,VM2,m,26,12,100,13,214,21,21/214,214-21,different,different,TRUE,2.14477834400896,0.763036210914074
464,VM2,m,26,12,100,14,214,214,same,214-214,same,same,TRUE,2.20885341240501,0.792473562980791
465,VM2,m,26,12,100,15,214,33,33/214,214-33,different,different,TRUE,2.28462472854881,0.826201778275941
466,VM2,m,26,12,100,16,35,35,same,35-35,same,different,FALSE,2.05244103135192,0.719029831774319
467,VM2,m,26,12,100,17,35,33,33/35,35-33,different,different,TRUE,2.48289206511981,0.909424036036221
468,VM2,m,26,12,100,18,21,212,21/212,21-212,different,different,TRUE,3.67651348304935,1.3019648800075
469,VM2,m,26,12,100,19,212,35,35/212,212-35,different,different,TRUE,3.35948661444127,1.21178816897997
470,VM2,m,26,12,100,20,33,214,33/214,33-214,different,different,TRUE,2.43414840003243,0.889596962317457
471,VM2,m,26,12,100,21,212,33,33/212,212-33,different,different,TRUE,2.34582207234052,0.852635904362955
472,VM2,m,26,12,100,22,35,212,35/212,35-212,different,different,TRUE,1.90126781501749,0.642520934707882
473,VM2,m,26,12,100,23,35,21,21/35,35-21,different,different,TRUE,1.80636832052551,0.591318376906461
474,VM2,m,26,12,100,24,35,35,same,35-35,same,same,TRUE,2.28379354266508,0.825837894829395
475,VM2,m,26,12,100,25,212,214,212/214,212-214,different,different,TRUE,3.55356851960823,1.2679523153863
476,VM2,m,26,12,100,26,212,21,21/212,212-21,different,different,TRUE,2.45338175931829,0.897467382730431
477,VM2,m,26,12,100,27,212,212,same,212-212,same,same,TRUE,2.5527334856306,0.937164740185928
478,VM2,m,26,12,100,28,33,33,same,33-33,same,same,TRUE,2.01725287933368,0.701736625101357
479,VM2,m,26,12,100,29,35,214,35/214,35-214,different,different,TRUE,2.25482453384029,0.813072157882911
480,VM2,m,26,12,100,30,21,33,33/21,21-33,different,different,TRUE,2.43390532946796,0.889497098766982
481,VM2,m,26,12,100,31,214,212,212/214,214-212,different,different,TRUE,1.99804517392477,0.692169289542724
482,VM2,m,26,12,100,32,212,214,212/214,212-214,different,same,FALSE,3.29806928857579,1.19333723318772
483,VM2,m,26,12,100,33,35,35,same,35-35,same,same,TRUE,1.76327428236254,0.567172468378147
484,VM2,m,26,12,100,34,33,33,same,33-33,same,same,TRUE,1.8460818179301,0.61306545683743
485,VM2,m,26,12,100,35,33,33,same,33-33,same,same,TRUE,1.85633503462304,0.618604132417567
486,VM2,m,26,12,100,36,214,214,same,214-214,same,same,TRUE,2.43373088304361,0.889425422734997
487,VM2,m,26,12,100,37,33,21,33/21,33-21,different,different,TRUE,3.34690402497654,1.20803574687827
488,VM2,m,26,12,100,38,21,21,same,21-21,same,same,TRUE,2.0042636757571,0.695276749296516
489,VM2,m,26,12,100,39,212,35,35/212,212-35,different,different,TRUE,3.48377263474686,1.24811579702918
490,VM2,m,26,12,100,40,35,21,21/35,35-21,different,different,TRUE,2.84622483834391,1.04599349807353
491,VM2,m,26,12,100,41,212,21,21/212,212-21,different,different,TRUE,4.47427877307928,1.49834517071088
492,VM2,m,26,12,100,42,21,214,21/214,21-214,different,different,TRUE,2.48188771550485,0.909019446236456
493,VM2,m,26,12,100,43,212,212,same,212-212,same,different,FALSE,1.97510867626988,0.680623422798647
494,VM2,m,26,12,100,44,212,212,same,212-212,same,same,TRUE,1.94381478408468,0.664652425822627
495,VM2,m,26,12,100,45,214,33,33/214,214-33,different,different,TRUE,2.3368579634116,0.848807276393318
496,VM2,m,26,12,100,46,33,212,33/212,33-212,different,different,TRUE,2.8387845702091,1.04337599233234
497,VM2,m,26,12,100,47,214,214,same,214-214,same,same,TRUE,2.02407937824319,0.705114969155792
498,VM2,m,26,12,100,48,35,33,33/35,35-33,different,different,TRUE,1.96705848700367,0.6765392730796
499,VM2,m,26,12,100,49,212,33,33/212,212-33,different,different,TRUE,2.70912983303424,0.996627488508316
500,VM2,m,26,12,100,50,35,214,35/214,35-214,different,different,TRUE,3.37628221325576,1.21677516721379
501,VM2,m,26,12,100,51,21,33,33/21,21-33,different,different,TRUE,2.79600350944384,1.02819107953667
502,VM2,m,26,12,100,52,214,21,21/214,214-21,different,different,TRUE,3.49870640282461,1.25239330098378
503,VM2,m,26,12,100,53,33,35,33/35,33-35,different,different,TRUE,2.79167890570534,1.02664317316667
504,VM2,m,26,12,100,54,214,35,35/214,214-35,different,different,TRUE,1.81013046282169,0.593398921587186
505,VM2,m,26,12,100,55,21,212,21/212,21-212,different,different,TRUE,3.38926243796595,1.22061232779904
506,VM2,m,26,12,100,56,33,214,33/214,33-214,different,different,TRUE,1.9198617512011,0.652253178864474
507,VM2,m,26,12,100,57,21,35,21/35,21-35,different,different,TRUE,1.69617013142852,0.52837284568095
508,VM2,m,26,12,100,58,35,35,same,35-35,same,same,TRUE,2.01307129599445,0.699661563812104
509,VM2,m,26,12,100,59,35,212,35/212,35-212,different,different,TRUE,1.56761915267271,0.449558005100231
510,VM2,m,26,12,100,60,21,21,same,21-21,same,same,TRUE,2.22419700132741,0.799395952198931
511,VM2,m,26,12,100,61,35,35,same,35-35,same,same,TRUE,1.72785524537903,0.546880896837676
512,VM2,m,26,12,100,62,33,21,33/21,33-21,different,different,TRUE,3.75265613917145,1.32246389303264
513,VM2,m,26,12,100,63,214,214,same,214-214,same,same,TRUE,2.23699572478654,0.80513377136917
514,VM2,m,26,12,100,64,214,35,35/214,214-35,different,different,TRUE,2.39644360185775,0.873985805794941
515,VM2,m,26,12,100,65,21,33,33/21,21-33,different,different,TRUE,1.96207265437988,0.674001391232208
516,VM2,m,26,12,100,66,33,214,33/214,33-214,different,different,TRUE,2.40622029760561,0.878057175125559
517,VM2,m,26,12,100,67,21,214,21/214,21-214,different,different,TRUE,2.35159355522774,0.855093206951859
518,VM2,m,26,12,100,68,212,35,35/212,212-35,different,different,TRUE,1.80466810926737,0.590376701896067
519,VM2,m,26,12,100,69,35,35,same,35-35,same,same,TRUE,1.7142817745771,0.538994202566689
520,VM2,m,26,12,100,70,21,212,21/212,21-212,different,different,TRUE,2.82478781029931,1.03843325037893
521,VM2,m,26,12,100,71,33,35,33/35,33-35,different,different,TRUE,2.19660304076388,0.786912094675928
522,VM2,m,26,12,100,72,35,33,33/35,35-33,different,different,TRUE,1.72382181324065,0.544543810310889
523,VM2,m,26,12,100,73,214,33,33/214,214-33,different,different,TRUE,2.64648112065333,0.973230878586827
524,VM2,m,26,12,100,74,33,33,same,33-33,same,same,TRUE,2.03876494499855,0.712344205397609
525,VM2,m,26,12,100,75,21,35,21/35,21-35,different,different,TRUE,2.56157253187848,0.940621340169749
526,VM2,m,26,12,100,76,212,33,33/212,212-33,different,different,TRUE,2.43431130220415,0.889663883759452
527,VM2,m,26,12,100,77,214,212,212/214,214-212,different,same,FALSE,1.7217400004447,0.543335407639946
528,VM2,m,26,12,100,78,212,212,same,212-212,same,same,TRUE,2.04460825875867,0.7152062106355
529,VM2,m,26,12,100,79,21,21,same,21-21,same,same,TRUE,1.61282322292391,0.477986197925613
530,VM2,m,26,12,100,80,35,214,35/214,35-214,different,different,TRUE,1.66427786236454,0.509391313052717
531,VM2,m,26,12,100,81,212,214,212/214,212-214,different,same,FALSE,3.31398880720371,1.1981525415707
532,VM2,m,26,12,100,82,212,21,21/212,212-21,different,different,TRUE,1.84256851831742,0.611160532079148
533,VM2,m,26,12,100,83,21,21,same,21-21,same,same,TRUE,1.97629516846791,0.681223964925097
534,VM2,m,26,12,100,84,33,212,33/212,33-212,different,different,TRUE,1.95617354341084,0.670990291302092
535,VM2,m,26,12,100,85,35,212,35/212,35-212,different,different,TRUE,2.2898882645095,0.82850302358513
536,VM2,m,26,12,100,86,35,21,21/35,35-21,different,different,TRUE,1.69469952245709,0.527505452231043
537,VM2,m,26,12,100,87,33,33,same,33-33,same,same,TRUE,1.70648555878142,0.534436026850894
538,VM2,m,26,12,100,88,212,212,same,212-212,same,same,TRUE,1.96608877013205,0.676046173366889
539,VM2,m,26,12,100,89,214,214,same,214-214,same,same,TRUE,1.70625531516271,0.534301095059955
540,VM2,m,26,12,100,90,214,21,21/214,214-21,different,different,TRUE,1.57636648628977,0.455122506464011
541,VM2,m,26,12,100,91,214,33,33/214,214-33,different,different,TRUE,1.93615645791579,0.660704800628171
542,VM2,m,26,12,100,92,21,214,21/214,21-214,different,different,TRUE,2.05661171177053,0.721059828521298
543,VM2,m,26,12,100,93,214,21,21/214,214-21,different,different,TRUE,2.21917653593118,0.797136197311999
544,VM2,m,26,12,100,94,214,212,212/214,214-212,different,same,FALSE,1.63097527093487,0.489178161620113
545,VM2,m,26,12,100,95,212,212,same,212-212,same,same,TRUE,1.80147676591878,0.588606754047505
546,VM2,m,26,12,100,96,21,212,21/212,21-212,different,same,FALSE,1.64631437040225,0.498539074542356
547,VM2,m,26,12,100,97,35,35,same,35-35,same,same,TRUE,1.80649723131501,0.591389738980529
548,VM2,m,26,12,100,98,212,21,21/212,212-21,different,different,TRUE,1.55609222059138,0.442177691732187
549,VM2,m,26,12,100,99,35,212,35/212,35-212,different,different,TRUE,2.4317677194631,0.888618449453354
550,VM2,m,26,12,100,100,214,214,same,214-214,same,same,TRUE,2.33358067955123,0.847403860290972
551,VM2,m,26,12,100,101,33,21,33/21,33-21,different,different,TRUE,1.80079373122135,0.588227529496678
552,VM2,m,26,12,100,102,33,212,33/212,33-212,different,different,TRUE,1.95599909698649,0.67090110994917
553,VM2,m,26,12,100,103,35,33,33/35,35-33,different,different,TRUE,1.71653546842572,0.540307996927131
554,VM2,m,26,12,100,104,33,214,33/214,33-214,different,different,TRUE,2.44611914434063,0.894502745948124
555,VM2,m,26,12,100,105,212,212,same,212-212,same,same,TRUE,2.87626297284442,1.05649187268996
556,VM2,m,26,12,100,106,212,214,212/214,212-214,different,different,TRUE,2.94485761452233,1.080060467725
557,VM2,m,26,12,100,107,33,33,same,33-33,same,same,TRUE,1.80581355525646,0.591011213373459
558,VM2,m,26,12,100,108,21,21,same,21-21,same,same,TRUE,1.92622134940757,0.655560233775224
559,VM2,m,26,12,100,109,35,21,21/35,35-21,different,different,TRUE,1.49624811924878,0.402960720912665
560,VM2,m,26,12,100,110,214,214,same,214-214,same,same,TRUE,1.6863575202442,0.522570889439128
561,VM2,m,26,12,100,111,214,35,35/214,214-35,different,different,TRUE,1.84633899814798,0.613204758521128
562,VM2,m,26,12,100,112,33,33,same,33-33,same,same,TRUE,1.7863576485106,0.580178713532484
563,VM2,m,26,12,100,113,35,35,same,35-35,same,same,TRUE,1.78615562416962,0.580065614251516
564,VM2,m,26,12,100,114,212,35,35/212,212-35,different,different,TRUE,2.31293250847375,0.838516203607735
565,VM2,m,26,12,100,115,35,214,35/214,35-214,different,different,TRUE,1.58953141895472,0.463439267738146
566,VM2,m,26,12,100,116,21,21,same,21-21,same,same,TRUE,2.13554871737142,0.75872362413747
567,VM2,m,26,12,100,117,212,33,33/212,212-33,different,different,TRUE,2.16427722101798,0.772086458610245
568,VM2,m,26,12,100,118,21,33,33/21,21-33,different,different,TRUE,2.30851298535708,0.836603587968399
569,VM2,m,26,12,100,119,33,35,33/35,33-35,different,different,TRUE,2.74134983049589,1.0084504379604
570,VM2,m,26,12,100,120,21,35,21/35,21-35,different,different,TRUE,1.7136263177963,0.538611778784528
571,VM2,m,26,12,100,121,212,212,same,212-212,same,same,TRUE,1.6461687846022,0.498450639283437
572,VM2,m,26,12,100,122,33,212,33/212,33-212,different,different,TRUE,1.68633058365958,0.52255491607676
573,VM2,m,26,12,100,123,35,35,same,35-35,same,same,TRUE,1.67636917994241,0.516630252231688
574,VM2,m,26,12,100,124,212,33,33/212,212-33,different,different,TRUE,1.51638192991959,0.416327188155112
575,VM2,m,26,12,100,125,21,35,21/35,21-35,different,different,TRUE,1.59839932581235,0.469002707122994
576,VM2,m,26,12,100,126,35,35,same,35-35,same,same,TRUE,1.71894436825824,0.541710363025503
577,VM2,m,26,12,100,127,21,212,21/212,21-212,different,different,TRUE,2.24908127021627,0.810521808480916
578,VM2,m,26,12,100,128,214,214,same,214-214,same,same,TRUE,1.55312663142104,0.44027008071424
579,VM2,m,26,12,100,129,35,21,21/35,35-21,different,different,TRUE,1.54630782867025,0.435870043326923
580,VM2,m,26,12,100,130,21,33,33/21,21-33,different,different,TRUE,2.14089691115078,0.761224858588788
581,VM2,m,26,12,100,131,212,35,35/212,212-35,different,different,TRUE,2.16383789823158,0.771883449782702
582,VM2,m,26,12,100,132,35,33,33/35,35-33,different,different,TRUE,2.73406092028017,1.00578802052614
583,VM2,m,26,12,100,133,21,214,21/214,21-214,different,different,TRUE,2.30274470921722,0.834101763290353
584,VM2,m,26,12,100,134,33,35,33/35,33-35,different,different,TRUE,1.60872565605678,0.475442347603466
585,VM2,m,26,12,100,135,214,212,212/214,214-212,different,same,FALSE,1.57622282451484,0.455031367555092
586,VM2,m,26,12,100,136,214,214,same,214-214,same,same,TRUE,1.60635651974007,0.473968583254084
587,VM2,m,26,12,100,137,35,214,35/214,35-214,different,different,TRUE,1.95878575029201,0.672324766106479
588,VM2,m,26,12,100,138,212,21,21/212,212-21,different,different,TRUE,1.78607802116312,0.580022166361921
589,VM2,m,26,12,100,139,214,33,33/214,214-33,different,different,TRUE,1.62646211113315,0.486407171937011
590,VM2,m,26,12,100,140,33,21,33/21,33-21,different,different,TRUE,1.56634543726977,0.448745158983751
591,VM2,m,26,12,100,141,212,214,212/214,212-214,different,different,TRUE,3.15676255660946,1.14954699503032
592,VM2,m,26,12,100,142,21,21,same,21-21,same,same,TRUE,1.81811844141339,0.597802142925458
593,VM2,m,26,12,100,143,21,21,same,21-21,same,same,TRUE,1.74617147825484,0.557425664653821
594,VM2,m,26,12,100,144,214,21,21/214,214-21,different,different,TRUE,2.06842981545196,0.72678977617785
595,VM2,m,26,12,100,145,35,212,35/212,35-212,different,different,TRUE,1.89082604227588,0.637013792994135
596,VM2,m,26,12,100,146,33,214,33/214,33-214,different,different,TRUE,2.06074134599476,0.723065794757887
597,VM2,m,26,12,100,147,212,212,same,212-212,same,same,TRUE,2.62775827369478,0.966131115301578
598,VM2,m,26,12,100,148,33,33,same,33-33,same,same,TRUE,1.87589804633171,0.629087502802162
599,VM2,m,26,12,100,149,214,35,35/214,214-35,different,different,TRUE,1.73644865567621,0.551842025057524
600,VM2,m,26,12,100,150,33,33,same,33-33,same,same,TRUE,1.36395295590046,0.310387069017435
601,VF3,f,23,12,100,1,214,214,same,214-214,same,same,TRUE,2.65329217910767,0.975801200681337
602,VF3,f,23,12,100,2,35,21,21/35,35-21,different,different,TRUE,2.00186109542847,0.69407729558306
603,VF3,f,23,12,100,3,33,212,33/212,33-212,different,different,TRUE,2.93913817405701,1.07811640030138
604,VF3,f,23,12,100,4,33,214,33/214,33-214,different,different,TRUE,3.7799928188324,1.3297221098499
605,VF3,f,23,12,100,5,212,212,same,212-212,same,same,TRUE,2.02780604362488,0.706954441916987
606,VF3,f,23,12,100,6,35,35,same,35-35,same,same,TRUE,2.09234309196472,0.738284534651018
607,VF3,f,23,12,100,7,35,212,35/212,35-212,different,different,TRUE,2.14764308929443,0.764371003294238
608,VF3,f,23,12,100,8,212,21,21/212,212-21,different,same,FALSE,2.4276750087738,0.886934012827233
609,VF3,f,23,12,100,9,214,33,33/214,214-33,different,different,TRUE,3.03553700447083,1.11038834608259
610,VF3,f,23,12,100,10,33,21,33/21,33-21,different,different,TRUE,2.65179085731506,0.975235206964604
611,VF3,f,23,12,100,11,21,212,21/212,21-212,different,same,FALSE,2.07550096511841,0.730202553516104
612,VF3,f,23,12,100,12,21,21,same,21-21,same,same,TRUE,1.69918894767761,0.530151047617312
613,VF3,f,23,12,100,13,214,35,35/214,214-35,different,different,TRUE,2.0903160572052,0.73731527808675
614,VF3,f,23,12,100,14,212,33,33/212,212-33,different,different,TRUE,2.10253620147705,0.743144331017352
615,VF3,f,23,12,100,15,35,35,same,35-35,same,same,TRUE,1.97892498970032,0.682553762769352
616,VF3,f,23,12,100,16,21,21,same,21-21,same,same,TRUE,1.74738693237305,0.558121490527837
617,VF3,f,23,12,100,17,212,212,same,212-212,same,same,TRUE,1.86784505844116,0.624785391206533
618,VF3,f,23,12,100,18,35,33,33/35,35-33,different,different,TRUE,2.20417904853821,0.790355125984783
619,VF3,f,23,12,100,19,214,214,same,214-214,same,same,TRUE,2.19550013542175,0.786409872701142
620,VF3,f,23,12,100,20,21,214,21/214,21-214,different,different,TRUE,3.90763902664185,1.36293336211545
621,VF3,f,23,12,100,21,33,35,33/35,33-35,different,different,TRUE,2.77254700660706,1.01976639469092
622,VF3,f,23,12,100,22,212,35,35/212,212-35,different,different,TRUE,1.71495819091797,0.539388701847256
623,VF3,f,23,12,100,23,214,212,212/214,214-212,different,same,FALSE,1.70207095146179,0.531845716392635
624,VF3,f,23,12,100,24,33,33,same,33-33,same,same,TRUE,2.10587120056152,0.744729253513675
625,VF3,f,23,12,100,25,21,35,21/35,21-35,different,different,TRUE,1.76357698440552,0.567344124068064
626,VF3,f,23,12,100,26,212,214,212/214,212-214,different,same,FALSE,1.73297905921936,0.549841927117104
627,VF3,f,23,12,100,27,35,214,35/214,35-214,different,different,TRUE,1.93870186805725,0.662018608924355
628,VF3,f,23,12,100,28,21,33,33/21,21-33,different,different,TRUE,1.94669103622437,0.666131026702076
629,VF3,f,23,12,100,29,33,33,same,33-33,same,same,TRUE,1.6929018497467,0.526444127310186
630,VF3,f,23,12,100,30,214,21,21/214,214-21,different,different,TRUE,2.09674692153931,0.740387058675419
631,VF3,f,23,12,100,31,214,214,same,214-214,same,same,TRUE,1.63080501556396,0.48907376748188
632,VF3,f,23,12,100,32,35,214,35/214,35-214,different,different,TRUE,2.8605170249939,1.05100238646329
633,VF3,f,23,12,100,33,21,35,21/35,21-35,different,different,TRUE,2.81157112121582,1.03374344496789
634,VF3,f,23,12,100,34,21,33,33/21,21-33,different,different,TRUE,2.33950304985046,0.849938534956737
635,VF3,f,23,12,100,35,35,33,33/35,35-33,different,different,TRUE,2.05139899253845,0.718521995781787
636,VF3,f,23,12,100,36,33,214,33/214,33-214,different,different,TRUE,1.96369886398315,0.674829870265531
637,VF3,f,23,12,100,37,212,212,same,212-212,same,same,TRUE,1.62785005569458,0.487260159956864
638,VF3,f,23,12,100,38,35,212,35/212,35-212,different,different,TRUE,1.89973282814026,0.641713259516645
639,VF3,f,23,12,100,39,214,21,21/214,214-21,different,different,TRUE,2.09177589416504,0.738013415304251
640,VF3,f,23,12,100,40,212,212,same,212-212,same,same,TRUE,1.65425896644592,0.503353154143747
641,VF3,f,23,12,100,41,33,21,33/21,33-21,different,different,TRUE,2.13008308410645,0.75616098558334
642,VF3,f,23,12,100,42,35,35,same,35-35,same,same,TRUE,1.86710596084595,0.624389617553254
643,VF3,f,23,12,100,43,21,212,21/212,21-212,different,same,FALSE,2.37214589118958,0.863794984804619
644,VF3,f,23,12,100,44,214,33,33/214,214-33,different,different,TRUE,1.65914082527161,0.506299893242619
645,VF3,f,23,12,100,45,33,212,33/212,33-212,different,different,TRUE,1.91726303100586,0.650898664356834
646,VF3,f,23,12,100,46,214,35,35/214,214-35,different,different,TRUE,1.75317692756653,0.561429529292558
647,VF3,f,23,12,100,47,212,33,33/212,212-33,different,different,TRUE,1.86285400390625,0.622109722422123
648,VF3,f,23,12,100,48,21,214,21/214,21-214,different,different,TRUE,2.8185350894928,1.03621727816673
649,VF3,f,23,12,100,49,33,33,same,33-33,same,same,TRUE,1.6038990020752,0.472437541174578
650,VF3,f,23,12,100,50,21,21,same,21-21,same,same,TRUE,1.96370911598206,0.674835091011098
651,VF3,f,23,12,100,51,212,21,21/212,212-21,different,different,TRUE,1.9316189289093,0.658358474570239
652,VF3,f,23,12,100,52,33,35,33/35,33-35,different,different,TRUE,1.76318097114563,0.567119547691379
653,VF3,f,23,12,100,53,35,21,21/35,35-21,different,different,TRUE,1.97238993644714,0.679245973168214
654,VF3,f,23,12,100,54,214,214,same,214-214,same,same,TRUE,1.77911901473999,0.57611830624364
655,VF3,f,23,12,100,55,21,21,same,21-21,same,same,TRUE,1.83697700500488,0.608121288465411
656,VF3,f,23,12,100,56,35,35,same,35-35,same,same,TRUE,1.73066902160645,0.54850805144526
657,VF3,f,23,12,100,57,33,33,same,33-33,same,same,TRUE,1.71587681770325,0.539924213933919
658,VF3,f,23,12,100,58,214,212,212/214,214-212,different,same,FALSE,1.71568608283997,0.539813048923103
659,VF3,f,23,12,100,59,212,214,212/214,212-214,different,same,FALSE,1.71002697944641,0.536509147844147
660,VF3,f,23,12,100,60,212,35,35/212,212-35,different,different,TRUE,1.7542679309845,0.562051636551348
661,VF3,f,23,12,100,61,214,21,21/214,214-21,different,different,TRUE,1.84824800491333,0.614238166008165
662,VF3,f,23,12,100,62,33,33,same,33-33,same,same,TRUE,1.97107291221619,0.678578019985711
663,VF3,f,23,12,100,63,33,33,same,33-33,same,same,TRUE,1.68156409263611,0.519724367817962
664,VF3,f,23,12,100,64,35,35,same,35-35,same,same,TRUE,2.09300494194031,0.738600804636569
665,VF3,f,23,12,100,65,21,35,21/35,21-35,different,different,TRUE,1.72857117652893,0.547295157737662
666,VF3,f,23,12,100,66,35,21,21/35,35-21,different,different,TRUE,1.95636081695557,0.671086021346927
667,VF3,f,23,12,100,67,33,214,33/214,33-214,different,different,TRUE,2.2197859287262,0.797410762732948
668,VF3,f,23,12,100,68,214,214,same,214-214,same,same,TRUE,1.77720999717712,0.57504471730413
669,VF3,f,23,12,100,69,33,35,33/35,33-35,different,different,TRUE,2.15008807182312,0.765508804939245
670,VF3,f,23,12,100,70,33,21,33/21,33-21,different,different,TRUE,2.21983790397644,0.797434176991545
671,VF3,f,23,12,100,71,212,212,same,212-212,same,same,TRUE,1.4831280708313,0.394153418719898
672,VF3,f,23,12,100,72,214,35,35/214,214-35,different,different,TRUE,2.1957700252533,0.786532793779558
673,VF3,f,23,12,100,73,33,212,33/212,33-212,different,different,TRUE,2.12428021430969,0.753433022319105
674,VF3,f,23,12,100,74,35,35,same,35-35,same,same,TRUE,1.61109304428101,0.476912858132885
675,VF3,f,23,12,100,75,35,212,35/212,35-212,different,different,TRUE,1.65342807769775,0.50285075548598
676,VF3,f,23,12,100,76,212,35,35/212,212-35,different,different,TRUE,1.69842410087585,0.52970082164764
677,VF3,f,23,12,100,77,214,33,33/214,214-33,different,different,TRUE,1.80999279022217,0.593322861967131
678,VF3,f,23,12,100,78,21,212,21/212,21-212,different,same,FALSE,1.87410998344421,0.628133871231878
679,VF3,f,23,12,100,79,214,212,212/214,214-212,different,different,TRUE,2.37597393989563,0.865407433382854
680,VF3,f,23,12,100,80,212,212,same,212-212,same,same,TRUE,1.61090612411499,0.476796830687528
681,VF3,f,23,12,100,81,212,214,212/214,212-214,different,same,FALSE,1.81781101226807,0.597633036703804
682,VF3,f,23,12,100,82,35,214,35/214,35-214,different,different,TRUE,2.1007981300354,0.742317334445759
683,VF3,f,23,12,100,83,212,21,21/212,212-21,different,different,TRUE,1.96488189697266,0.675432140193144
684,VF3,f,23,12,100,84,214,214,same,214-214,same,same,TRUE,1.68364405632019,0.520960525497891
685,VF3,f,23,12,100,85,212,33,33/212,212-33,different,different,TRUE,1.89988613128662,0.641793953474688
686,VF3,f,23,12,100,86,21,33,33/21,21-33,different,different,TRUE,1.9318950176239,0.658501395609941
687,VF3,f,23,12,100,87,21,21,same,21-21,same,same,TRUE,1.73174285888672,0.549128334272242
688,VF3,f,23,12,100,88,21,214,21/214,21-214,different,different,TRUE,1.81196689605713,0.594412938169757
689,VF3,f,23,12,100,89,21,21,same,21-21,same,same,TRUE,2.39643287658691,0.873981330290142
690,VF3,f,23,12,100,90,35,33,33/35,35-33,different,different,TRUE,1.95452404022217,0.670146706109825
691,VF3,f,23,12,100,91,214,214,same,214-214,same,same,TRUE,1.61237001419067,0.4777051550839
692,VF3,f,23,12,100,92,214,214,same,214-214,same,same,TRUE,1.78127598762512,0.577329954472325
693,VF3,f,23,12,100,93,33,33,same,33-33,same,same,TRUE,1.73806810379028,0.552774211225243
694,VF3,f,23,12,100,94,21,35,21/35,21-35,different,different,TRUE,1.69974184036255,0.530476380920219
695,VF3,f,23,12,100,95,35,35,same,35-35,same,same,TRUE,1.67602181434631,0.516423017694945
696,VF3,f,23,12,100,96,212,212,same,212-212,same,same,TRUE,1.70894289016724,0.535874986469904
697,VF3,f,23,12,100,97,214,35,35/214,214-35,different,different,TRUE,1.81612300872803,0.596704013968832
698,VF3,f,23,12,100,98,33,212,33/212,33-212,different,different,TRUE,1.95103788375854,0.66836147906319
699,VF3,f,23,12,100,99,212,21,21/212,212-21,different,different,TRUE,2.80375194549561,1.03095850074258
700,VF3,f,23,12,100,100,214,212,212/214,214-212,different,different,TRUE,2.21160006523132,0.793716264976722
701,VF3,f,23,12,100,101,21,212,21/212,21-212,different,different,TRUE,2.26788687705994,0.818848506782031
702,VF3,f,23,12,100,102,33,21,33/21,33-21,different,different,TRUE,2.41171884536743,0.880339707131843
703,VF3,f,23,12,100,103,212,33,33/212,212-33,different,different,TRUE,1.55498099327087,0.441463322579566
704,VF3,f,23,12,100,104,33,214,33/214,33-214,different,different,TRUE,2.21233892440796,0.794050292722239
705,VF3,f,23,12,100,105,35,21,21/35,35-21,different,different,TRUE,1.54634380340576,0.435893307981201
706,VF3,f,23,12,100,106,35,214,35/214,35-214,different,different,TRUE,2.16526484489441,0.772542684177994
707,VF3,f,23,12,100,107,212,35,35/212,212-35,different,different,TRUE,2.18740010261536,0.782713670831009
708,VF3,f,23,12,100,108,212,214,212/214,212-214,different,same,FALSE,1.76862215995789,0.570200802741686
709,VF3,f,23,12,100,109,33,35,33/35,33-35,different,different,TRUE,1.71056699752808,0.536824893056696
710,VF3,f,23,12,100,110,35,35,same,35-35,same,same,TRUE,1.94832396507263,0.666969497898407
711,VF3,f,23,12,100,111,21,33,33/21,21-33,different,different,TRUE,1.7956690788269,0.585377698352331
712,VF3,f,23,12,100,112,214,33,33/214,214-33,different,different,TRUE,2.29933404922485,0.832619537193919
713,VF3,f,23,12,100,113,35,212,35/212,35-212,different,different,TRUE,1.96761107444763,0.676820154327168
714,VF3,f,23,12,100,114,212,212,same,212-212,same,same,TRUE,1.68010997772217,0.518859254202425
715,VF3,f,23,12,100,115,21,21,same,21-21,same,same,TRUE,1.89173197746277,0.637492799634343
716,VF3,f,23,12,100,116,21,21,same,21-21,same,same,TRUE,1.64500784873962,0.497745155476241
717,VF3,f,23,12,100,117,21,214,21/214,21-214,different,different,TRUE,1.75467801094055,0.562285370535689
718,VF3,f,23,12,100,118,214,21,21/214,214-21,different,different,TRUE,1.64568614959717,0.49815740946734
719,VF3,f,23,12,100,119,33,33,same,33-33,same,same,TRUE,1.79405617713928,0.58447907704783
720,VF3,f,23,12,100,120,35,33,33/35,35-33,different,different,TRUE,1.72613406181335,0.545884261610947
721,VF3,f,23,12,100,121,21,35,21/35,21-35,different,different,TRUE,2.71355414390564,0.998259267852985
722,VF3,f,23,12,100,122,214,212,212/214,214-212,different,same,FALSE,1.95429491996765,0.67002947363776
723,VF3,f,23,12,100,123,33,33,same,33-33,same,same,TRUE,1.74911689758301,0.55911103061431
724,VF3,f,23,12,100,124,214,21,21/214,214-21,different,different,TRUE,2.17257499694824,0.775913098596437
725,VF3,f,23,12,100,125,21,33,33/21,21-33,different,different,TRUE,1.49108910560608,0.399506796308159
726,VF3,f,23,12,100,126,212,33,33/212,212-33,different,different,TRUE,1.70785093307495,0.535235815840389
727,VF3,f,23,12,100,127,33,33,same,33-33,same,same,TRUE,1.62754607200623,0.487073403152277
728,VF3,f,23,12,100,128,35,35,same,35-35,same,same,TRUE,2.25251293182373,0.812046451582091
729,VF3,f,23,12,100,129,35,35,same,35-35,same,same,TRUE,1.56131792068481,0.445530285552891
730,VF3,f,23,12,100,130,212,212,same,212-212,same,same,TRUE,1.72638487815857,0.54602955630738
731,VF3,f,23,12,100,131,212,35,35/212,212-35,different,different,TRUE,1.89932608604431,0.641499131698841
732,VF3,f,23,12,100,132,21,214,21/214,21-214,different,different,TRUE,1.92381501197815,0.654310200000532
733,VF3,f,23,12,100,133,21,21,same,21-21,same,same,TRUE,1.76375985145569,0.567447809686333
734,VF3,f,23,12,100,134,21,212,21/212,21-212,different,different,TRUE,2.09054803848267,0.737426250972926
735,VF3,f,23,12,100,135,212,21,21/212,212-21,different,different,TRUE,1.63689684867859,0.49280228398982
736,VF3,f,23,12,100,136,214,214,same,214-214,same,same,TRUE,1.72916603088379,0.547639229206975
737,VF3,f,23,12,100,137,35,21,21/35,35-21,different,different,TRUE,1.58928203582764,0.463282364458892
738,VF3,f,23,12,100,138,214,214,same,214-214,same,same,TRUE,1.75710916519165,0.563669938858055
739,VF3,f,23,12,100,139,33,212,33/212,33-212,different,different,TRUE,2.40442299842834,0.877309957279507
740,VF3,f,23,12,100,140,35,214,35/214,35-214,different,different,TRUE,1.63508009910583,0.49169179342803
741,VF3,f,23,12,100,141,33,35,33/35,33-35,different,different,TRUE,2.10306882858276,0.743397624945219
742,VF3,f,23,12,100,142,33,21,33/21,33-21,different,different,TRUE,1.74477696418762,0.556626733266329
743,VF3,f,23,12,100,143,35,212,35/212,35-212,different,different,TRUE,1.64566683769226,0.49814567453342
744,VF3,f,23,12,100,144,212,212,same,212-212,same,same,TRUE,1.64608693122864,0.498400914486434
745,VF3,f,23,12,100,145,35,33,33/35,35-33,different,different,TRUE,1.73567605018616,0.551396991789275
746,VF3,f,23,12,100,146,33,214,33/214,33-214,different,different,TRUE,1.87586712837219,0.629071020981962
747,VF3,f,23,12,100,147,21,21,same,21-21,same,same,TRUE,1.85178017616272,0.616147433802633
748,VF3,f,23,12,100,148,214,35,35/214,214-35,different,different,TRUE,1.62004590034485,0.482454482389108
749,VF3,f,23,12,100,149,212,214,212/214,212-214,different,same,FALSE,1.59556102752686,0.467225415786453
750,VF3,f,23,12,100,150,214,33,33/214,214-33,different,different,TRUE,1.65178394317627,0.501855881543424
751,VM3,m,18,12,100,1,33,214,33/214,33-214,different,different,TRUE,1.77717399597168,0.57502445995123
752,VM3,m,18,12,100,2,212,212,same,212-212,same,same,TRUE,1.60311007499695,0.471945539390235
753,VM3,m,18,12,100,3,33,212,33/212,33-212,different,same,FALSE,1.89193892478943,0.637602189341965
754,VM3,m,18,12,100,4,214,35,35/214,214-35,different,different,TRUE,1.70864391326904,0.535700022721415
755,VM3,m,18,12,100,5,35,21,21/35,35-21,different,different,TRUE,1.69472599029541,0.527521070121583
756,VM3,m,18,12,100,6,21,214,21/214,21-214,different,same,FALSE,1.89617609977722,0.639839279149121
757,VM3,m,18,12,100,7,214,214,same,214-214,same,same,TRUE,1.91573810577393,0.650102982196578
758,VM3,m,18,12,100,8,212,214,212/214,212-214,different,different,TRUE,2.15585589408875,0.76818781133643
759,VM3,m,18,12,100,9,33,33,same,33-33,same,same,TRUE,1.7478039264679,0.558360100728921
760,VM3,m,18,12,100,10,214,33,33/214,214-33,different,different,TRUE,1.77568006515503,0.5741834848484
761,VM3,m,18,12,100,11,35,212,35/212,35-212,different,different,TRUE,2.25602412223816,0.813604026060102
762,VM3,m,18,12,100,12,35,33,33/35,35-33,different,different,TRUE,1.77418184280396,0.573339383033244
763,VM3,m,18,12,100,13,21,212,21/212,21-212,different,different,TRUE,2.49755716323853,0.915313119462235
764,VM3,m,18,12,100,14,212,21,21/212,212-21,different,different,TRUE,2.2837700843811,0.825827623145893
765,VM3,m,18,12,100,15,21,21,same,21-21,same,same,TRUE,1.57983899116516,0.457322937520429
766,VM3,m,18,12,100,16,212,33,33/212,212-33,different,different,TRUE,2.08371210098267,0.734150967026723
767,VM3,m,18,12,100,17,35,214,35/214,35-214,different,different,TRUE,1.77181005477905,0.572001653874745
768,VM3,m,18,12,100,18,212,35,35/212,212-35,different,different,TRUE,2.33202695846558,0.846737828655379
769,VM3,m,18,12,100,19,214,214,same,214-214,same,same,TRUE,1.47586107254028,0.38924159745311
770,VM3,m,18,12,100,20,33,21,33/21,33-21,different,different,TRUE,2.09984707832336,0.741864522231867
771,VM3,m,18,12,100,21,35,35,same,35-35,same,different,FALSE,2.26790189743042,0.818855129828751
772,VM3,m,18,12,100,22,21,21,same,21-21,same,same,TRUE,1.41964793205261,0.350408905697946
773,VM3,m,18,12,100,23,33,35,33/35,33-35,different,different,TRUE,1.70780491828918,0.535208872384859
774,VM3,m,18,12,100,24,214,21,21/214,214-21,different,same,FALSE,2.10043001174927,0.742142091267026
775,VM3,m,18,12,100,25,212,212,same,212-212,same,same,TRUE,1.69145488739014,0.525589038702738
776,VM3,m,18,12,100,26,21,33,33/21,21-33,different,different,TRUE,1.75580811500549,0.562929215327229
777,VM3,m,18,12,100,27,214,212,212/214,214-212,different,different,TRUE,2.42783999443054,0.887001970873576
778,VM3,m,18,12,100,28,21,35,21/35,21-35,different,different,TRUE,1.69976091384888,0.530487602259166
779,VM3,m,18,12,100,29,33,33,same,33-33,same,same,TRUE,2.08577013015747,0.735138154033575
780,VM3,m,18,12,100,30,35,35,same,35-35,same,same,TRUE,1.66246104240417,0.508299060132966
781,VM3,m,18,12,100,31,35,35,same,35-35,same,same,TRUE,1.75147795677185,0.560459978233274
782,VM3,m,18,12,100,32,212,33,33/212,212-33,different,different,TRUE,1.66693806648254,0.510988450398541
783,VM3,m,18,12,100,33,21,35,21/35,21-35,different,different,TRUE,1.75675892829895,0.563470593359282
784,VM3,m,18,12,100,34,35,33,33/35,35-33,different,different,TRUE,1.94028902053833,0.662836941637802
785,VM3,m,18,12,100,35,35,21,21/35,35-21,different,different,TRUE,2.16341304779053,0.77168708934615
786,VM3,m,18,12,100,36,33,21,33/21,33-21,different,different,TRUE,2.0197160243988,0.70295691954975
787,VM3,m,18,12,100,37,33,33,same,33-33,same,same,TRUE,2.22790503501892,0.801061697736042
788,VM3,m,18,12,100,38,214,35,35/214,214-35,different,different,TRUE,1.54902791976929,0.437627585655307
789,VM3,m,18,12,100,39,21,214,21/214,21-214,different,different,TRUE,2.19459199905396,0.785996151825619
790,VM3,m,18,12,100,40,33,35,33/35,33-35,different,different,TRUE,1.6679630279541,0.511603138195754
791,VM3,m,18,12,100,41,33,212,33/212,33-212,different,different,TRUE,1.74908089637756,0.559090447898543
792,VM3,m,18,12,100,42,21,33,33/21,21-33,different,different,TRUE,1.66713881492615,0.51110887260294
793,VM3,m,18,12,100,43,33,33,same,33-33,same,same,TRUE,1.61928486824036,0.481984612423451
794,VM3,m,18,12,100,44,212,21,21/212,212-21,different,different,TRUE,1.72207093238831,0.543527597020305
795,VM3,m,18,12,100,45,212,214,212/214,212-214,different,same,FALSE,1.9119610786438,0.64812945806417
796,VM3,m,18,12,100,46,214,214,same,214-214,same,same,TRUE,1.76143407821655,0.566128294435263
797,VM3,m,18,12,100,47,214,21,21/214,214-21,different,different,TRUE,1.59591603279114,0.467447886610486
798,VM3,m,18,12,100,48,33,214,33/214,33-214,different,different,TRUE,2.09181690216064,0.738033019504566
799,VM3,m,18,12,100,49,212,212,same,212-212,same,same,TRUE,1.47574496269226,0.389162921744566
800,VM3,m,18,12,100,50,212,212,same,212-212,same,same,TRUE,1.7320339679718,0.549296421940888
801,VM3,m,18,12,100,51,214,214,same,214-214,same,same,TRUE,2.13158893585205,0.756867680890357
802,VM3,m,18,12,100,52,21,21,same,21-21,same,same,TRUE,2.31599187850952,0.839838053016138
803,VM3,m,18,12,100,53,35,214,35/214,35-214,different,different,TRUE,1.73984289169312,0.553794817019464
804,VM3,m,18,12,100,54,212,35,35/212,212-35,different,different,TRUE,1.80375909805298,0.589872875058838
805,VM3,m,18,12,100,55,214,212,212/214,214-212,different,same,FALSE,1.83053588867188,0.604608759325252
806,VM3,m,18,12,100,56,35,35,same,35-35,same,same,TRUE,2.08857297897339,0.736481047592563
807,VM3,m,18,12,100,57,214,33,33/214,214-33,different,different,TRUE,1.55717015266418,0.442870169260029
808,VM3,m,18,12,100,58,21,21,same,21-21,same,same,TRUE,1.85690093040466,0.618908931676936
809,VM3,m,18,12,100,59,21,212,21/212,21-212,different,different,TRUE,1.7661759853363,0.568816749162655
810,VM3,m,18,12,100,60,35,212,35/212,35-212,different,different,TRUE,1.78775119781494,0.580958515958697
811,VM3,m,18,12,100,61,33,212,33/212,33-212,different,different,TRUE,1.78786993026733,0.581024928169713
812,VM3,m,18,12,100,62,35,35,same,35-35,same,same,TRUE,1.8678560256958,0.624791262797644
813,VM3,m,18,12,100,63,35,35,same,35-35,same,same,TRUE,1.91279196739197,0.648563937755402
814,VM3,m,18,12,100,64,35,212,35/212,35-212,different,different,TRUE,1.80688095092773,0.591602127274705
815,VM3,m,18,12,100,65,33,33,same,33-33,same,same,TRUE,1.89179801940918,0.637527709861815
816,VM3,m,18,12,100,66,212,214,212/214,212-214,different,different,TRUE,2.6838219165802,0.987241866900799
817,VM3,m,18,12,100,67,214,214,same,214-214,same,different,FALSE,2.50776195526123,0.919390704095876
818,VM3,m,18,12,100,68,214,212,212/214,214-212,different,same,FALSE,1.76372504234314,0.567428073747783
819,VM3,m,18,12,100,69,214,35,35/214,214-35,different,different,TRUE,1.79611301422119,0.585624893413194
820,VM3,m,18,12,100,70,33,35,33/35,33-35,different,different,TRUE,2.38782000541687,0.870380818073496
821,VM3,m,18,12,100,71,21,35,21/35,21-35,different,different,TRUE,1.57960605621338,0.457175484440087
822,VM3,m,18,12,100,72,21,21,same,21-21,same,same,TRUE,2.28393602371216,0.825900280767552
823,VM3,m,18,12,100,73,21,21,same,21-21,same,same,TRUE,1.62792015075684,0.487303218930822
824,VM3,m,18,12,100,74,212,212,same,212-212,same,same,TRUE,1.91550707817078,0.649982380359662
825,VM3,m,18,12,100,75,35,33,33/35,35-33,different,different,TRUE,1.51606011390686,0.416114939406885
826,VM3,m,18,12,100,76,21,33,33/21,21-33,different,different,TRUE,2.42790412902832,0.887028386844497
827,VM3,m,18,12,100,77,21,212,21/212,21-212,different,different,TRUE,2.48378396034241,0.909783187801953
828,VM3,m,18,12,100,78,35,21,21/35,35-21,different,different,TRUE,1.82192611694336,0.599894247490522
829,VM3,m,18,12,100,79,214,21,21/214,214-21,different,different,TRUE,2.76159501075745,1.0158084152561
830,VM3,m,18,12,100,80,214,33,33/214,214-33,different,different,TRUE,1.53187799453735,0.426494430116675
831,VM3,m,18,12,100,81,33,33,same,33-33,same,same,TRUE,1.65190291404724,0.5019279046353
832,VM3,m,18,12,100,82,33,21,33/21,33-21,different,different,TRUE,1.70254516601562,0.532124287920547
833,VM3,m,18,12,100,83,21,214,21/214,21-214,different,different,TRUE,2.25714421272278,0.81410039155081
834,VM3,m,18,12,100,84,212,21,21/212,212-21,different,different,TRUE,1.9719569683075,0.679026434597271
835,VM3,m,18,12,100,85,212,33,33/212,212-33,different,different,TRUE,1.95885109901428,0.672358127402992
836,VM3,m,18,12,100,86,212,35,35/212,212-35,different,different,TRUE,1.54461598396301,0.434775325385779
837,VM3,m,18,12,100,87,35,214,35/214,35-214,different,different,TRUE,2.47600817680359,0.906647657241609
838,VM3,m,18,12,100,88,214,214,same,214-214,same,same,TRUE,1.38185906410217,0.323429740479622
839,VM3,m,18,12,100,89,33,214,33/214,33-214,different,different,TRUE,1.61906003952026,0.481845758331711
840,VM3,m,18,12,100,90,212,212,same,212-212,same,same,TRUE,2.20249700546265,0.78959171921894
841,VM3,m,18,12,100,91,212,212,same,212-212,same,same,TRUE,1.63868403434753,0.493893501645624
842,VM3,m,18,12,100,92,35,35,same,35-35,same,same,TRUE,2.09602689743042,0.740043599119978
843,VM3,m,18,12,100,93,33,214,33/214,33-214,different,different,TRUE,1.38887691497803,0.328495445719053
844,VM3,m,18,12,100,94,33,35,33/35,33-35,different,different,TRUE,1.67582201957703,0.516303802851162
845,VM3,m,18,12,100,95,35,33,33/35,35-33,different,different,TRUE,1.77982497215271,0.576515029217971
846,VM3,m,18,12,100,96,33,33,same,33-33,same,same,TRUE,1.61336517333984,0.478322167406913
847,VM3,m,18,12,100,97,35,35,same,35-35,same,same,TRUE,1.75061392784119,0.559966542323159
848,VM3,m,18,12,100,98,214,33,33/214,214-33,different,different,TRUE,1.50451111793518,0.408468006848083
849,VM3,m,18,12,100,99,33,33,same,33-33,same,same,TRUE,1.97891592979431,0.682549184563107
850,VM3,m,18,12,100,100,212,33,33/212,212-33,different,different,TRUE,1.56393098831177,0.447202516029224
851,VM3,m,18,12,100,101,214,35,35/214,214-35,different,different,TRUE,1.91067004203796,0.647453987889747
852,VM3,m,18,12,100,102,214,21,21/214,214-21,different,different,TRUE,3.36894822120667,1.21460059511862
853,VM3,m,18,12,100,103,33,212,33/212,33-212,different,different,TRUE,3.18788599967957,1.15935800109147
854,VM3,m,18,12,100,104,35,21,21/35,35-21,different,different,TRUE,1.48373699188232,0.394563899848432
855,VM3,m,18,12,100,105,214,214,same,214-214,same,same,TRUE,2.08488011360168,0.734711354125993
856,VM3,m,18,12,100,106,21,21,same,21-21,same,same,TRUE,1.70673990249634,0.534585061081578
857,VM3,m,18,12,100,107,21,21,same,21-21,same,same,TRUE,1.83368611335754,0.606328210526661
858,VM3,m,18,12,100,108,33,21,33/21,33-21,different,different,TRUE,2.34999012947083,0.854411127922066
859,VM3,m,18,12,100,109,212,212,same,212-212,same,same,TRUE,2.42785811424255,0.88700943419259
860,VM3,m,18,12,100,110,21,33,33/21,21-33,different,different,TRUE,1.49337601661682,0.401039339906218
861,VM3,m,18,12,100,111,214,212,212/214,214-212,different,same,FALSE,1.67457294464111,0.51555817434639
862,VM3,m,18,12,100,112,214,214,same,214-214,same,same,TRUE,1.87570595741272,0.628985099180154
863,VM3,m,18,12,100,113,212,35,35/212,212-35,different,different,TRUE,1.81184816360474,0.594347409189674
864,VM3,m,18,12,100,114,35,212,35/212,35-212,different,different,TRUE,1.80354690551758,0.589755229072922
865,VM3,m,18,12,100,115,212,214,212/214,212-214,different,different,TRUE,1.97215509414673,0.679126901235269
866,VM3,m,18,12,100,116,21,214,21/214,21-214,different,different,TRUE,1.85165786743164,0.616081382350072
867,VM3,m,18,12,100,117,212,21,21/212,212-21,different,different,TRUE,2.49980592727661,0.916213099771506
868,VM3,m,18,12,100,118,21,35,21/35,21-35,different,different,TRUE,1.58784890174866,0.462380208265561
869,VM3,m,18,12,100,119,21,212,21/212,21-212,different,different,TRUE,3.6600558757782,1.29747841390281
870,VM3,m,18,12,100,120,35,214,35/214,35-214,different,different,TRUE,2.37985301017761,0.867038725346555
871,VM3,m,18,12,100,121,212,212,same,212-212,same,same,TRUE,1.63577008247375,0.492113691919157
872,VM3,m,18,12,100,122,21,21,same,21-21,same,same,TRUE,1.64401197433472,0.497139580266049
873,VM3,m,18,12,100,123,21,35,21/35,21-35,different,different,TRUE,1.63549709320068,0.491946790679335
874,VM3,m,18,12,100,124,35,212,35/212,35-212,different,different,TRUE,1.72387194633484,0.544572892414864
875,VM3,m,18,12,100,125,35,214,35/214,35-214,different,different,TRUE,1.77189588546753,0.572050095077226
876,VM3,m,18,12,100,126,212,35,35/212,212-35,different,different,TRUE,2.38769602775574,0.870328895868523
877,VM3,m,18,12,100,127,33,35,33/35,33-35,different,different,TRUE,3.18801403045654,1.15939816193978
878,VM3,m,18,12,100,128,35,21,21/35,35-21,different,different,TRUE,2.86775684356689,1.05353013656534
879,VM3,m,18,12,100,129,212,214,212/214,212-214,different,same,FALSE,2.32391309738159,0.843252444736976
880,VM3,m,18,12,100,130,212,21,21/212,212-21,different,different,TRUE,1.80374622344971,0.589865737382176
881,VM3,m,18,12,100,131,33,214,33/214,33-214,different,different,TRUE,1.89973306655884,0.641713385017748
882,VM3,m,18,12,100,132,212,212,same,212-212,same,same,TRUE,1.71582722663879,0.539895312219892
883,VM3,m,18,12,100,133,35,33,33/35,35-33,different,different,TRUE,2.70000696182251,0.993254351459741
884,VM3,m,18,12,100,134,21,33,33/21,21-33,different,different,TRUE,1.76469206809998,0.567976209498619
885,VM3,m,18,12,100,135,214,212,212/214,214-212,different,same,FALSE,1.75468301773071,0.562288223927016
886,VM3,m,18,12,100,136,33,33,same,33-33,same,same,TRUE,1.716059923172,0.540030920719474
887,VM3,m,18,12,100,137,214,214,same,214-214,same,same,TRUE,2.19588303565979,0.786584259778785
888,VM3,m,18,12,100,138,35,35,same,35-35,same,same,TRUE,1.73979187011719,0.553765491196828
889,VM3,m,18,12,100,139,33,33,same,33-33,same,same,TRUE,1.75327301025391,0.561484332691498
890,VM3,m,18,12,100,140,214,21,21/214,214-21,different,different,TRUE,1.79829692840576,0.586840066133149
891,VM3,m,18,12,100,141,212,33,33/212,212-33,different,different,TRUE,1.70797300338745,0.535307289262218
892,VM3,m,18,12,100,142,21,214,21/214,21-214,different,different,TRUE,2.09996485710144,0.741920609875751
893,VM3,m,18,12,100,143,21,21,same,21-21,same,same,TRUE,1.66760110855103,0.511386131782634
894,VM3,m,18,12,100,144,214,35,35/214,214-35,different,different,TRUE,2.11589622497559,0.749478469776196
895,VM3,m,18,12,100,145,33,212,33/212,33-212,different,different,TRUE,1.97102308273315,0.678552739280676
896,VM3,m,18,12,100,146,214,33,33/214,214-33,different,different,TRUE,2.60454797744751,0.957259139015403
897,VM3,m,18,12,100,147,33,21,33/21,33-21,different,different,TRUE,2.18794107437134,0.782960952922556
898,VM3,m,18,12,100,148,214,214,same,214-214,same,same,TRUE,1.85993599891663,0.620542077948491
899,VM3,m,18,12,100,149,35,35,same,35-35,same,same,TRUE,2.63578391075134,0.969180637085546
900,VM3,m,18,12,100,150,21,212,21/212,21-212,different,different,TRUE,3.46795511245728,1.24356511548311
901,VF4,f,29,12,100,1,35,214,35/214,35-214,different,different,TRUE,2.06543898582458,0.725342787754657
902,VF4,f,29,12,100,2,35,33,33/35,35-33,different,different,TRUE,2.29896402359009,0.832458596937457
903,VF4,f,29,12,100,3,33,212,33/212,33-212,different,different,TRUE,1.79796600341797,0.586656027871765
904,VF4,f,29,12,100,4,21,35,21/35,21-35,different,different,TRUE,2.08407115936279,0.734323268875733
905,VF4,f,29,12,100,5,212,21,21/212,212-21,different,different,TRUE,2.0414080619812,0.713639796220768
906,VF4,f,29,12,100,6,212,212,same,212-212,same,same,TRUE,2.52373290061951,0.925739115235927
907,VF4,f,29,12,100,7,21,33,33/21,21-33,different,different,TRUE,1.73384809494019,0.550343270680186
908,VF4,f,29,12,100,8,35,35,same,35-35,same,same,TRUE,1.90577483177185,0.644888661722308
909,VF4,f,29,12,100,9,214,214,same,214-214,same,same,TRUE,2.08853006362915,0.73646049969427
910,VF4,f,29,12,100,10,21,214,21/214,21-214,different,different,TRUE,2.21521091461182,0.795347620007573
911,VF4,f,29,12,100,11,33,33,same,33-33,same,same,TRUE,1.96091294288635,0.673410151984162
912,VF4,f,29,12,100,12,35,35,same,35-35,same,same,TRUE,1.81463408470154,0.595883841166499
913,VF4,f,29,12,100,13,33,21,33/21,33-21,different,different,TRUE,1.86794209480286,0.624837340826646
914,VF4,f,29,12,100,14,33,33,same,33-33,same,same,TRUE,2.30786800384521,0.83632415630209
915,VF4,f,29,12,100,15,21,212,21/212,21-212,different,different,TRUE,1.77179098129272,0.571990888844407
916,VF4,f,29,12,100,16,33,35,33/35,33-35,different,different,TRUE,2.40361785888672,0.876975043507746
917,VF4,f,29,12,100,17,21,21,same,21-21,same,same,TRUE,1.68382000923157,0.521065027228636
918,VF4,f,29,12,100,18,212,35,35/212,212-35,different,different,TRUE,2.08404111862183,0.734308854321151
919,VF4,f,29,12,100,19,35,212,35/212,35-212,different,different,TRUE,2.3077380657196,0.836267852482532
920,VF4,f,29,12,100,20,212,212,same,212-212,same,same,TRUE,1.74769997596741,0.558300624039195
921,VF4,f,29,12,100,21,212,214,212/214,212-214,different,different,TRUE,2.46801400184631,0.903413779384549
922,VF4,f,29,12,100,22,21,21,same,21-21,same,same,TRUE,1.84774899482727,0.613968138684481
923,VF4,f,29,12,100,23,35,21,21/35,35-21,different,different,TRUE,1.79986810684204,0.587713388240806
924,VF4,f,29,12,100,24,214,35,35/214,214-35,different,different,TRUE,1.91575312614441,0.650110822679343
925,VF4,f,29,12,100,25,214,214,same,214-214,same,same,TRUE,1.76391816139221,0.567537562739788
926,VF4,f,29,12,100,26,212,33,33/212,212-33,different,different,TRUE,1.77522587776184,0.573927669908232
927,VF4,f,29,12,100,27,214,21,21/214,214-21,different,different,TRUE,2.16030502319336,0.770249426167623
928,VF4,f,29,12,100,28,214,212,212/214,214-212,different,same,FALSE,1.70792293548584,0.535277974609482
929,VF4,f,29,12,100,29,214,33,33/214,214-33,different,different,TRUE,1.89174294471741,0.637498597085028
930,VF4,f,29,12,100,30,33,214,33/214,33-214,different,different,TRUE,1.80389904975891,0.589950460960977
931,VF4,f,29,12,100,31,33,33,same,33-33,same,same,TRUE,2.17193603515625,0.775618951894137
932,VF4,f,29,12,100,32,212,21,21/212,212-21,different,different,TRUE,1.61967706680298,0.482226787893496
933,VF4,f,29,12,100,33,35,35,same,35-35,same,same,TRUE,1.76458191871643,0.56791378907788
934,VF4,f,29,12,100,34,21,35,21/35,21-35,different,different,TRUE,2.17921113967896,0.778962948780363
935,VF4,f,29,12,100,35,212,35,35/212,212-35,different,different,TRUE,1.56829881668091,0.449991475634529
936,VF4,f,29,12,100,36,21,212,21/212,21-212,different,different,TRUE,1.84716701507568,0.613653122183516
937,VF4,f,29,12,100,37,214,35,35/214,214-35,different,different,TRUE,2.08395504951477,0.734267554327775
938,VF4,f,29,12,100,38,33,21,33/21,33-21,different,different,TRUE,1.59666395187378,0.467916422465448
939,VF4,f,29,12,100,39,212,214,212/214,212-214,different,different,TRUE,2.91503286361694,1.06988109370698
940,VF4,f,29,12,100,40,212,212,same,212-212,same,same,TRUE,2.05963087081909,0.722526777822466
941,VF4,f,29,12,100,41,214,212,212/214,214-212,different,different,TRUE,2.30792117118835,0.836347193464805
942,VF4,f,29,12,100,42,33,33,same,33-33,same,same,TRUE,2.31572794914246,0.839724086983143
943,VF4,f,29,12,100,43,214,33,33/214,214-33,different,different,TRUE,1.77202200889587,0.572121272475889
944,VF4,f,29,12,100,44,35,33,33/35,35-33,different,different,TRUE,2.37970209121704,0.866975308091199
945,VF4,f,29,12,100,45,33,35,33/35,33-35,different,different,TRUE,1.98798704147339,0.687122589839591
946,VF4,f,29,12,100,46,33,212,33/212,33-212,different,different,TRUE,1.95873093605042,0.672296781928753
947,VF4,f,29,12,100,47,35,214,35/214,35-214,different,different,TRUE,1.63268208503723,0.490224113490549
948,VF4,f,29,12,100,48,35,21,21/35,35-21,different,different,TRUE,2.09796595573425,0.740968282833034
949,VF4,f,29,12,100,49,21,21,same,21-21,same,same,TRUE,1.83993291854858,0.609729113645758
950,VF4,f,29,12,100,50,212,212,same,212-212,same,same,TRUE,2.89770197868347,1.0639180017172
951,VF4,f,29,12,100,51,21,214,21/214,21-214,different,different,TRUE,1.97096610069275,0.678523828982977
952,VF4,f,29,12,100,52,35,212,35/212,35-212,different,different,TRUE,1.63661599159241,0.492630690291811
953,VF4,f,29,12,100,53,214,214,same,214-214,same,same,TRUE,1.97630786895752,0.681230391317773
954,VF4,f,29,12,100,54,21,33,33/21,21-33,different,different,TRUE,1.63129305839539,0.489372987691694
955,VF4,f,29,12,100,55,35,35,same,35-35,same,same,TRUE,2.13994383811951,0.760779584819994
956,VF4,f,29,12,100,56,212,33,33/212,212-33,different,different,TRUE,1.55570006370544,0.441925646060635
957,VF4,f,29,12,100,57,33,214,33/214,33-214,different,different,TRUE,1.97991299629211,0.683052902474389
958,VF4,f,29,12,100,58,21,21,same,21-21,same,same,TRUE,1.81416511535645,0.595625370349103
959,VF4,f,29,12,100,59,214,214,same,214-214,same,same,TRUE,2.31347417831421,0.838750367994745
960,VF4,f,29,12,100,60,214,21,21/214,214-21,different,different,TRUE,1.49197816848755,0.400102869293515
961,VF4,f,29,12,100,61,21,21,same,21-21,same,same,TRUE,2.67578101158142,0.984241304680241
962,VF4,f,29,12,100,62,212,212,same,212-212,same,different,FALSE,2.54780292510986,0.935231389785309
963,VF4,f,29,12,100,63,35,212,35/212,35-212,different,different,TRUE,2.6917998790741,0.99021006989367
964,VF4,f,29,12,100,64,35,35,same,35-35,same,same,TRUE,1.76560091972351,0.568491096872981
965,VF4,f,29,12,100,65,212,21,21/212,212-21,different,different,TRUE,2.14591813087463,0.763567493841757
966,VF4,f,29,12,100,66,21,21,same,21-21,same,same,TRUE,1.95832014083862,0.672087034746378
967,VF4,f,29,12,100,67,212,214,212/214,212-214,different,different,TRUE,2.00943207740784,0.697852133593306
968,VF4,f,29,12,100,68,21,33,33/21,21-33,different,different,TRUE,1.96126413345337,0.67358923138885
969,VF4,f,29,12,100,69,35,35,same,35-35,same,same,TRUE,1.97547006607056,0.680806378170633
970,VF4,f,29,12,100,70,214,212,212/214,214-212,different,same,FALSE,3.40269899368286,1.22456893838377
971,VF4,f,29,12,100,71,35,214,35/214,35-214,different,different,TRUE,2.00391507148743,0.69510280282729
972,VF4,f,29,12,100,72,214,214,same,214-214,same,same,TRUE,2.06777691841125,0.726474077718783
973,VF4,f,29,12,100,73,33,214,33/214,33-214,different,different,TRUE,1.57973790168762,0.457258948270602
974,VF4,f,29,12,100,74,33,35,33/35,33-35,different,different,TRUE,2.53996896743774,0.932151863411615
975,VF4,f,29,12,100,75,35,21,21/35,35-21,different,different,TRUE,2.09970593452454,0.741797303745304
976,VF4,f,29,12,100,76,33,33,same,33-33,same,same,TRUE,1.79568910598755,0.585388851325448
977,VF4,f,29,12,100,77,33,33,same,33-33,same,same,TRUE,2.09996390342712,0.741920155737421
978,VF4,f,29,12,100,78,33,212,33/212,33-212,different,different,TRUE,1.70766615867615,0.535127618812519
979,VF4,f,29,12,100,79,212,35,35/212,212-35,different,different,TRUE,2.21206617355347,0.793926998923955
980,VF4,f,29,12,100,80,214,214,same,214-214,same,same,TRUE,1.9798150062561,0.683003409157693
981,VF4,f,29,12,100,81,214,35,35/214,214-35,different,different,TRUE,1.66772794723511,0.511462189456118
982,VF4,f,29,12,100,82,21,212,21/212,21-212,different,different,TRUE,2.39592480659485,0.873769296870453
983,VF4,f,29,12,100,83,21,214,21/214,21-214,different,different,TRUE,1.69978308677673,0.53050064690742
984,VF4,f,29,12,100,84,33,21,33/21,33-21,different,different,TRUE,2.09976696968079,0.741826371753431
985,VF4,f,29,12,100,85,35,33,33/35,35-33,different,different,TRUE,2.22787499427795,0.801048213793491
986,VF4,f,29,12,100,86,212,33,33/212,212-33,different,different,TRUE,1.69188594818115,0.525843852399789
987,VF4,f,29,12,100,87,214,21,21/214,214-21,different,different,TRUE,1.74856495857239,0.558795427859171
988,VF4,f,29,12,100,88,21,35,21/35,21-35,different,different,TRUE,1.69904494285583,0.530066294874268
989,VF4,f,29,12,100,89,214,33,33/214,214-33,different,different,TRUE,1.60374093055725,0.472338981784252
990,VF4,f,29,12,100,90,212,212,same,212-212,same,same,TRUE,2.18002700805664,0.779337265741062
991,VF4,f,29,12,100,91,35,214,35/214,35-214,different,different,TRUE,1.49971795082092,0.405277057641732
992,VF4,f,29,12,100,92,212,21,21/212,212-21,different,different,TRUE,2.09975504875183,0.741820694474492
993,VF4,f,29,12,100,93,214,21,21/214,214-21,different,different,TRUE,2.01195812225342,0.699108438031524
994,VF4,f,29,12,100,94,21,21,same,21-21,same,same,TRUE,1.96134305000305,0.673629468173214
995,VF4,f,29,12,100,95,33,33,same,33-33,same,same,TRUE,1.96228694915771,0.674110603842517
996,VF4,f,29,12,100,96,33,214,33/214,33-214,different,different,TRUE,1.67787599563599,0.517528705216524
997,VF4,f,29,12,100,97,212,33,33/212,212-33,different,different,TRUE,2.08690094947815,0.735680166249146
998,VF4,f,29,12,100,98,35,33,33/35,35-33,different,different,TRUE,1.52954697608948,0.424971597500678
999,VF4,f,29,12,100,99,35,21,21/35,35-21,different,different,TRUE,2.35709404945374,0.857429525344489
1000,VF4,f,29,12,100,100,214,35,35/214,214-35,different,different,TRUE,1.96620321273804,0.676104379932689
1001,VF4,f,29,12,100,101,212,35,35/212,212-35,different,different,TRUE,1.4977490901947,0.403963374533675
1002,VF4,f,29,12,100,102,21,214,21/214,21-214,different,different,TRUE,1.779452085495,0.576305499780931
1003,VF4,f,29,12,100,103,21,35,21/35,21-35,different,different,TRUE,1.80230903625488,0.589068640739216
1004,VF4,f,29,12,100,104,214,214,same,214-214,same,same,TRUE,1.68536591529846,0.521982700642933
1005,VF4,f,29,12,100,105,35,212,35/212,35-212,different,different,TRUE,1.88579297065735,0.634348406530216
1006,VF4,f,29,12,100,106,214,212,212/214,214-212,different,same,FALSE,2.4259090423584,0.886206316974136
1007,VF4,f,29,12,100,107,33,212,33/212,33-212,different,different,TRUE,2.25976014137268,0.815258675515799
